submission_id,RT,age,angle,correctness,expected,item,key_pressed,timeSpent,trial_number,trial_type
7917,2813,21,150,incorrect,different,14,f,3.10295,1,practice
7917,2055,21,150,correct,same,13,f,3.10295,2,practice
7917,1541,21,50,correct,same,13,f,3.10295,3,practice
7917,1415,21,50,correct,same,14,f,3.10295,4,practice
7917,1290,21,50,correct,different,15,j,3.10295,5,practice
7917,1528,21,150,correct,same,15,f,3.10295,6,practice
7917,26040,21,150,incorrect,different,13,f,3.10295,7,practice
7917,1480,21,50,correct,same,15,f,3.10295,8,practice
7917,1106,21,50,correct,different,13,j,3.10295,9,practice
7917,1107,21,150,correct,same,14,f,3.10295,10,practice
7917,1374,21,150,correct,different,15,j,3.10295,11,practice
7917,1539,21,50,correct,different,14,j,3.10295,12,practice
7917,1807,21,150,correct,same,11,f,3.10295,1,main
7917,1456,21,150,correct,same,4,f,3.10295,2,main
7917,1887,21,150,correct,different,1,j,3.10295,3,main
7917,1726,21,50,correct,different,12,j,3.10295,4,main
7917,1551,21,50,correct,different,7,j,3.10295,5,main
7917,1264,21,50,correct,same,9,f,3.10295,6,main
7917,1736,21,50,correct,different,11,j,3.10295,7,main
7917,1568,21,150,correct,same,10,f,3.10295,8,main
7917,1894,21,150,correct,same,2,f,3.10295,9,main
7917,1537,21,50,correct,different,4,j,3.10295,10,main
7917,1690,21,150,correct,same,6,f,3.10295,11,main
7917,1372,21,50,correct,same,5,f,3.10295,12,main
7917,1689,21,150,correct,different,9,j,3.10295,13,main
7917,1268,21,50,correct,same,8,f,3.10295,14,main
7917,1386,21,150,correct,same,9,f,3.10295,15,main
7917,1357,21,50,correct,same,7,f,3.10295,16,main
7917,1469,21,150,correct,same,5,f,3.10295,17,main
7917,2689,21,150,incorrect,different,7,f,3.10295,18,main
7917,1368,21,50,correct,different,9,j,3.10295,19,main
7917,2156,21,150,correct,same,8,f,3.10295,20,main
7917,1627,21,150,correct,different,6,j,3.10295,21,main
7917,1572,21,150,correct,different,8,j,3.10295,22,main
7917,1590,21,50,correct,different,6,j,3.10295,23,main
7917,1418,21,50,correct,same,10,f,3.10295,24,main
7917,1432,21,150,correct,different,3,j,3.10295,25,main
7917,1746,21,50,correct,different,5,j,3.10295,26,main
7917,1541,21,50,correct,different,10,j,3.10295,27,main
7917,1330,21,50,correct,same,4,f,3.10295,28,main
7917,1253,21,50,correct,same,1,f,3.10295,29,main
7917,1077,21,50,correct,same,2,f,3.10295,30,main
7917,1359,21,150,correct,different,5,j,3.10295,31,main
7917,1592,21,150,incorrect,same,3,j,3.10295,32,main
7917,1924,21,50,correct,different,8,j,3.10295,33,main
7917,1554,21,50,correct,different,3,j,3.10295,34,main
7917,1681,21,50,correct,different,1,j,3.10295,35,main
7917,2163,21,150,correct,same,7,f,3.10295,36,main
7917,1556,21,50,correct,same,11,f,3.10295,37,main
7917,1854,21,150,correct,different,10,j,3.10295,38,main
7917,1579,21,150,correct,different,11,j,3.10295,39,main
7917,1825,21,50,correct,same,6,f,3.10295,40,main
7917,1196,21,150,correct,different,4,j,3.10295,41,main
7917,1399,21,50,correct,different,2,j,3.10295,42,main
7917,1645,21,150,correct,different,12,j,3.10295,43,main
7917,1434,21,150,incorrect,same,12,j,3.10295,44,main
7917,1354,21,50,correct,same,3,f,3.10295,45,main
7917,1612,21,150,correct,same,1,f,3.10295,46,main
7917,1170,21,150,correct,different,2,j,3.10295,47,main
7917,1052,21,50,correct,same,12,f,3.10295,48,main
7923,5389,,150,correct,same,14,f,4.2372666667,1,practice
7923,3882,,150,correct,different,15,j,4.2372666667,2,practice
7923,3789,,50,correct,different,15,j,4.2372666667,3,practice
7923,2234,,50,correct,same,14,f,4.2372666667,4,practice
7923,2789,,50,correct,same,13,f,4.2372666667,5,practice
7923,2153,,150,incorrect,same,15,j,4.2372666667,6,practice
7923,4827,,150,correct,different,14,j,4.2372666667,7,practice
7923,3071,,150,incorrect,same,13,j,4.2372666667,8,practice
7923,2937,,50,correct,different,14,j,4.2372666667,9,practice
7923,2653,,50,correct,same,15,f,4.2372666667,10,practice
7923,2914,,150,correct,different,13,j,4.2372666667,11,practice
7923,2233,,50,correct,different,13,j,4.2372666667,12,practice
7923,2078,,150,incorrect,same,8,j,4.2372666667,1,main
7923,3452,,150,correct,same,11,f,4.2372666667,2,main
7923,2675,,150,correct,different,2,j,4.2372666667,3,main
7923,2317,,50,correct,same,4,f,4.2372666667,4,main
7923,2391,,50,correct,different,3,j,4.2372666667,5,main
7923,3211,,50,correct,different,2,j,4.2372666667,6,main
7923,3787,,50,correct,different,5,j,4.2372666667,7,main
7923,7871,,50,correct,different,4,j,4.2372666667,8,main
7923,4172,,150,incorrect,different,1,f,4.2372666667,9,main
7923,2441,,50,correct,different,1,j,4.2372666667,10,main
7923,1861,,50,correct,same,8,f,4.2372666667,11,main
7923,5617,,150,correct,same,4,f,4.2372666667,12,main
7923,4031,,150,correct,different,10,j,4.2372666667,13,main
7923,5298,,150,correct,same,9,f,4.2372666667,14,main
7923,3459,,50,correct,same,1,f,4.2372666667,15,main
7923,2098,,50,correct,different,9,j,4.2372666667,16,main
7923,3366,,150,correct,same,12,f,4.2372666667,17,main
7923,4515,,50,correct,same,10,f,4.2372666667,18,main
7923,3750,,150,correct,different,9,j,4.2372666667,19,main
7923,3381,,150,incorrect,different,7,f,4.2372666667,20,main
7923,2355,,150,correct,different,3,j,4.2372666667,21,main
7923,3481,,150,correct,different,11,j,4.2372666667,22,main
7923,4218,,150,incorrect,different,4,f,4.2372666667,23,main
7923,3402,,50,correct,different,7,j,4.2372666667,24,main
7923,5450,,150,correct,same,7,f,4.2372666667,25,main
7923,4323,,50,correct,different,6,j,4.2372666667,26,main
7923,2674,,50,correct,same,2,f,4.2372666667,27,main
7923,3082,,150,incorrect,same,5,j,4.2372666667,28,main
7923,4402,,150,incorrect,same,3,j,4.2372666667,29,main
7923,1920,,50,correct,same,12,f,4.2372666667,30,main
7923,2258,,150,incorrect,same,10,j,4.2372666667,31,main
7923,4338,,150,correct,different,12,j,4.2372666667,32,main
7923,3092,,50,correct,same,6,f,4.2372666667,33,main
7923,1875,,150,correct,different,6,j,4.2372666667,34,main
7923,4098,,50,incorrect,different,8,f,4.2372666667,35,main
7923,2921,,150,correct,same,1,f,4.2372666667,36,main
7923,1958,,50,correct,different,12,j,4.2372666667,37,main
7923,3421,,50,incorrect,same,7,j,4.2372666667,38,main
7923,6349,,50,correct,same,11,f,4.2372666667,39,main
7923,4409,,150,correct,different,8,j,4.2372666667,40,main
7923,2591,,150,incorrect,same,6,j,4.2372666667,41,main
7923,5755,,50,correct,different,11,j,4.2372666667,42,main
7923,5532,,150,correct,different,5,j,4.2372666667,43,main
7923,2207,,50,correct,same,9,f,4.2372666667,44,main
7923,3536,,50,correct,different,10,j,4.2372666667,45,main
7923,3271,,50,incorrect,same,5,j,4.2372666667,46,main
7923,3447,,150,incorrect,same,2,j,4.2372666667,47,main
7923,2730,,50,correct,same,3,f,4.2372666667,48,main
7927,5894,21,50,correct,different,13,j,3.3196333333,1,practice
7927,6466,21,150,incorrect,different,14,f,3.3196333333,2,practice
7927,3167,21,150,correct,same,15,f,3.3196333333,3,practice
7927,2917,21,150,incorrect,same,14,j,3.3196333333,4,practice
7927,3963,21,150,correct,same,13,f,3.3196333333,5,practice
7927,3314,21,50,correct,same,13,f,3.3196333333,6,practice
7927,2617,21,50,correct,same,15,f,3.3196333333,7,practice
7927,3501,21,150,correct,different,15,j,3.3196333333,8,practice
7927,1899,21,50,correct,different,14,j,3.3196333333,9,practice
7927,1693,21,50,correct,same,14,f,3.3196333333,10,practice
7927,2105,21,150,correct,different,13,j,3.3196333333,11,practice
7927,2182,21,50,correct,different,15,j,3.3196333333,12,practice
7927,7208,21,150,correct,different,6,j,3.3196333333,1,main
7927,2306,21,150,correct,different,12,j,3.3196333333,2,main
7927,2079,21,150,correct,different,4,j,3.3196333333,3,main
7927,965,21,150,incorrect,same,7,j,3.3196333333,4,main
7927,736,21,150,incorrect,same,2,j,3.3196333333,5,main
7927,692,21,150,correct,different,1,j,3.3196333333,6,main
7927,5663,21,50,correct,different,4,j,3.3196333333,7,main
7927,2780,21,50,correct,same,1,f,3.3196333333,8,main
7927,2684,21,150,correct,different,5,j,3.3196333333,9,main
7927,3333,21,150,incorrect,different,7,f,3.3196333333,10,main
7927,2903,21,50,correct,same,11,f,3.3196333333,11,main
7927,1811,21,150,incorrect,same,1,j,3.3196333333,12,main
7927,1798,21,50,correct,different,7,j,3.3196333333,13,main
7927,1491,21,50,correct,same,2,f,3.3196333333,14,main
7927,2123,21,50,incorrect,same,8,j,3.3196333333,15,main
7927,2073,21,50,correct,same,10,f,3.3196333333,16,main
7927,1578,21,50,correct,different,12,j,3.3196333333,17,main
7927,1940,21,50,incorrect,different,1,f,3.3196333333,18,main
7927,5888,21,150,incorrect,different,11,f,3.3196333333,19,main
7927,1234,21,150,incorrect,same,8,j,3.3196333333,20,main
7927,1839,21,50,correct,different,6,j,3.3196333333,21,main
7927,4399,21,150,correct,same,10,f,3.3196333333,22,main
7927,2741,21,50,correct,same,12,f,3.3196333333,23,main
7927,4574,21,50,incorrect,same,7,j,3.3196333333,24,main
7927,2517,21,50,correct,different,10,j,3.3196333333,25,main
7927,3382,21,150,correct,same,4,f,3.3196333333,26,main
7927,1498,21,150,incorrect,same,9,j,3.3196333333,27,main
7927,1538,21,50,incorrect,different,2,f,3.3196333333,28,main
7927,2482,21,150,incorrect,same,6,j,3.3196333333,29,main
7927,2087,21,150,correct,same,11,f,3.3196333333,30,main
7927,1428,21,50,correct,same,3,f,3.3196333333,31,main
7927,1240,21,50,correct,same,9,f,3.3196333333,32,main
7927,1808,21,50,correct,different,11,j,3.3196333333,33,main
7927,1869,21,50,correct,same,6,f,3.3196333333,34,main
7927,1445,21,150,correct,different,8,j,3.3196333333,35,main
7927,4965,21,150,correct,different,2,j,3.3196333333,36,main
7927,2299,21,50,correct,same,4,f,3.3196333333,37,main
7927,1703,21,50,correct,different,3,j,3.3196333333,38,main
7927,5248,21,50,correct,different,5,j,3.3196333333,39,main
7927,2040,21,50,correct,different,8,j,3.3196333333,40,main
7927,4757,21,150,correct,same,3,f,3.3196333333,41,main
7927,1578,21,150,incorrect,same,12,j,3.3196333333,42,main
7927,3389,21,150,correct,different,3,j,3.3196333333,43,main
7927,1449,21,50,incorrect,different,9,f,3.3196333333,44,main
7927,5241,21,150,correct,different,10,j,3.3196333333,45,main
7927,5208,21,150,correct,same,5,f,3.3196333333,46,main
7927,1841,21,50,correct,same,5,f,3.3196333333,47,main
7927,3252,21,150,correct,different,9,j,3.3196333333,48,main
7925,2499,24,150,correct,different,13,j,4.51345,1,practice
7925,2106,24,50,incorrect,same,13,j,4.51345,2,practice
7925,1750,24,50,correct,same,14,f,4.51345,3,practice
7925,2013,24,150,incorrect,same,15,j,4.51345,4,practice
7925,2678,24,150,incorrect,different,15,f,4.51345,5,practice
7925,1950,24,50,incorrect,different,14,f,4.51345,6,practice
7925,3890,24,150,correct,same,13,f,4.51345,7,practice
7925,1614,24,50,correct,different,13,j,4.51345,8,practice
7925,1886,24,50,correct,different,15,j,4.51345,9,practice
7925,2877,24,150,incorrect,different,14,f,4.51345,10,practice
7925,3715,24,150,correct,same,14,f,4.51345,11,practice
7925,11924,24,50,correct,same,15,f,4.51345,12,practice
7925,4239,24,50,incorrect,same,12,j,4.51345,1,main
7925,3015,24,50,correct,same,5,f,4.51345,2,main
7925,2839,24,150,incorrect,different,1,f,4.51345,3,main
7925,4876,24,150,correct,same,1,f,4.51345,4,main
7925,5216,24,50,correct,different,7,j,4.51345,5,main
7925,2239,24,50,correct,same,1,f,4.51345,6,main
7925,2319,24,50,correct,different,2,j,4.51345,7,main
7925,5242,24,150,correct,same,9,f,4.51345,8,main
7925,2807,24,150,correct,different,4,j,4.51345,9,main
7925,2695,24,50,correct,same,8,f,4.51345,10,main
7925,2111,24,50,correct,different,8,j,4.51345,11,main
7925,2655,24,50,correct,different,9,j,4.51345,12,main
7925,3415,24,150,correct,same,8,f,4.51345,13,main
7925,4402,24,50,incorrect,same,10,j,4.51345,14,main
7925,5984,24,150,correct,different,11,j,4.51345,15,main
7925,2287,24,150,correct,different,5,j,4.51345,16,main
7925,2824,24,50,correct,same,9,f,4.51345,17,main
7925,2623,24,150,correct,different,6,j,4.51345,18,main
7925,2728,24,50,correct,different,4,j,4.51345,19,main
7925,4597,24,150,correct,different,8,j,4.51345,20,main
7925,2303,24,50,correct,same,3,f,4.51345,21,main
7925,2047,24,150,incorrect,same,5,j,4.51345,22,main
7925,4831,24,150,incorrect,same,11,j,4.51345,23,main
7925,1895,24,50,correct,different,12,j,4.51345,24,main
7925,3407,24,150,correct,same,3,f,4.51345,25,main
7925,3819,24,150,incorrect,same,6,j,4.51345,26,main
7925,4639,24,150,correct,same,7,f,4.51345,27,main
7925,4029,24,150,correct,same,4,f,4.51345,28,main
7925,4105,24,50,correct,same,2,f,4.51345,29,main
7925,2136,24,50,correct,same,11,f,4.51345,30,main
7925,3568,24,50,correct,different,5,j,4.51345,31,main
7925,4891,24,50,correct,same,7,f,4.51345,32,main
7925,2189,24,50,correct,different,1,j,4.51345,33,main
7925,4207,24,150,correct,different,10,j,4.51345,34,main
7925,2359,24,50,correct,different,10,j,4.51345,35,main
7925,6021,24,150,correct,different,2,j,4.51345,36,main
7925,2751,24,150,correct,different,12,j,4.51345,37,main
7925,2079,24,50,correct,same,6,f,4.51345,38,main
7925,2735,24,150,correct,different,3,j,4.51345,39,main
7925,3669,24,50,correct,same,4,f,4.51345,40,main
7925,5545,24,150,correct,same,2,f,4.51345,41,main
7925,4293,24,50,correct,different,11,j,4.51345,42,main
7925,5033,24,150,correct,different,7,j,4.51345,43,main
7925,2958,24,150,correct,different,9,j,4.51345,44,main
7925,9368,24,50,correct,different,3,j,4.51345,45,main
7925,5264,24,150,correct,same,10,f,4.51345,46,main
7925,4504,24,150,correct,same,12,f,4.51345,47,main
7925,5117,24,50,correct,different,6,j,4.51345,48,main
7928,4090,21,50,correct,same,14,f,4.7962333333,1,practice
7928,3988,21,150,correct,different,13,j,4.7962333333,2,practice
7928,5421,21,50,incorrect,different,14,f,4.7962333333,3,practice
7928,6351,21,150,correct,different,14,j,4.7962333333,4,practice
7928,3768,21,50,correct,different,13,j,4.7962333333,5,practice
7928,2003,21,150,incorrect,same,13,j,4.7962333333,6,practice
7928,5149,21,150,correct,same,14,f,4.7962333333,7,practice
7928,4383,21,150,correct,same,15,f,4.7962333333,8,practice
7928,4843,21,150,correct,different,15,j,4.7962333333,9,practice
7928,2576,21,50,correct,same,13,f,4.7962333333,10,practice
7928,2179,21,50,correct,different,15,j,4.7962333333,11,practice
7928,1866,21,50,correct,same,15,f,4.7962333333,12,practice
7928,8389,21,150,correct,same,10,f,4.7962333333,1,main
7928,8906,21,150,correct,same,9,f,4.7962333333,2,main
7928,4357,21,150,correct,different,1,j,4.7962333333,3,main
7928,1838,21,50,correct,same,8,f,4.7962333333,4,main
7928,3713,21,150,correct,same,3,f,4.7962333333,5,main
7928,3183,21,150,correct,same,5,f,4.7962333333,6,main
7928,4146,21,150,correct,different,10,j,4.7962333333,7,main
7928,6131,21,150,correct,same,11,f,4.7962333333,8,main
7928,3654,21,50,correct,same,11,f,4.7962333333,9,main
7928,2985,21,150,correct,same,12,f,4.7962333333,10,main
7928,11828,21,150,correct,different,6,j,4.7962333333,11,main
7928,4537,21,50,correct,different,10,j,4.7962333333,12,main
7928,5059,21,50,correct,different,5,j,4.7962333333,13,main
7928,2259,21,50,correct,same,5,f,4.7962333333,14,main
7928,4326,21,150,correct,different,5,j,4.7962333333,15,main
7928,4737,21,150,correct,different,4,j,4.7962333333,16,main
7928,5452,21,50,correct,different,6,j,4.7962333333,17,main
7928,4060,21,50,correct,different,8,j,4.7962333333,18,main
7928,2116,21,50,correct,same,4,f,4.7962333333,19,main
7928,1907,21,50,correct,same,2,f,4.7962333333,20,main
7928,2695,21,150,correct,same,4,f,4.7962333333,21,main
7928,3022,21,50,correct,same,3,f,4.7962333333,22,main
7928,6741,21,150,correct,different,9,j,4.7962333333,23,main
7928,3917,21,150,correct,different,8,j,4.7962333333,24,main
7928,1582,21,50,correct,same,12,f,4.7962333333,25,main
7928,5951,21,50,correct,different,3,j,4.7962333333,26,main
7928,2040,21,150,correct,same,1,f,4.7962333333,27,main
7928,2282,21,50,correct,different,2,j,4.7962333333,28,main
7928,2432,21,50,correct,same,1,f,4.7962333333,29,main
7928,2235,21,50,correct,different,4,j,4.7962333333,30,main
7928,2080,21,50,correct,different,12,j,4.7962333333,31,main
7928,3216,21,50,correct,same,6,f,4.7962333333,32,main
7928,5555,21,150,correct,different,3,j,4.7962333333,33,main
7928,4959,21,150,correct,different,2,j,4.7962333333,34,main
7928,3407,21,150,correct,different,12,j,4.7962333333,35,main
7928,9751,21,150,correct,same,6,f,4.7962333333,36,main
7928,2327,21,50,correct,different,1,j,4.7962333333,37,main
7928,3587,21,150,correct,same,8,f,4.7962333333,38,main
7928,2667,21,150,correct,different,7,j,4.7962333333,39,main
7928,6424,21,50,correct,different,11,j,4.7962333333,40,main
7928,6861,21,150,correct,same,2,f,4.7962333333,41,main
7928,4086,21,50,correct,different,7,j,4.7962333333,42,main
7928,4704,21,50,correct,same,10,f,4.7962333333,43,main
7928,2366,21,50,correct,same,9,f,4.7962333333,44,main
7928,1541,21,50,correct,different,9,j,4.7962333333,45,main
7928,2532,21,50,correct,same,7,f,4.7962333333,46,main
7928,11270,21,150,correct,same,7,f,4.7962333333,47,main
7928,3987,21,150,correct,different,11,j,4.7962333333,48,main
7938,2034,22,50,incorrect,different,15,f,5.6863666667,1,practice
7938,2863,22,150,correct,same,15,f,5.6863666667,2,practice
7938,2868,22,150,correct,same,14,f,5.6863666667,3,practice
7938,2995,22,150,correct,different,15,j,5.6863666667,4,practice
7938,2025,22,50,correct,same,14,f,5.6863666667,5,practice
7938,1538,22,50,correct,same,15,f,5.6863666667,6,practice
7938,2159,22,50,correct,different,14,j,5.6863666667,7,practice
7938,3365,22,150,correct,different,14,j,5.6863666667,8,practice
7938,3438,22,150,incorrect,different,13,f,5.6863666667,9,practice
7938,2438,22,50,correct,different,13,j,5.6863666667,10,practice
7938,4193,22,150,correct,same,13,f,5.6863666667,11,practice
7938,2359,22,50,correct,same,13,f,5.6863666667,12,practice
7938,2387,22,50,correct,same,3,f,5.6863666667,1,main
7938,2270,22,50,correct,different,7,j,5.6863666667,2,main
7938,2656,22,50,correct,different,2,j,5.6863666667,3,main
7938,3712,22,50,correct,different,3,j,5.6863666667,4,main
7938,2690,22,150,correct,same,3,f,5.6863666667,5,main
7938,3470,22,150,correct,same,1,f,5.6863666667,6,main
7938,4947,22,50,correct,same,5,f,5.6863666667,7,main
7938,2749,22,50,correct,same,6,f,5.6863666667,8,main
7938,2053,22,50,correct,same,2,f,5.6863666667,9,main
7938,4466,22,50,correct,same,11,f,5.6863666667,10,main
7938,5066,22,150,correct,same,4,f,5.6863666667,11,main
7938,3776,22,150,correct,different,7,j,5.6863666667,12,main
7938,3439,22,150,correct,different,2,j,5.6863666667,13,main
7938,3207,22,50,correct,same,8,f,5.6863666667,14,main
7938,2479,22,150,correct,different,12,j,5.6863666667,15,main
7938,3477,22,50,correct,different,4,j,5.6863666667,16,main
7938,3912,22,150,incorrect,different,1,f,5.6863666667,17,main
7938,4827,22,150,correct,different,11,j,5.6863666667,18,main
7938,3711,22,50,correct,different,11,j,5.6863666667,19,main
7938,13428,22,50,correct,different,5,j,5.6863666667,20,main
7938,3954,22,50,correct,different,9,j,5.6863666667,21,main
7938,4965,22,150,correct,different,6,j,5.6863666667,22,main
7938,2081,22,50,correct,different,8,j,5.6863666667,23,main
7938,2966,22,150,correct,different,4,j,5.6863666667,24,main
7938,4614,22,50,correct,different,12,j,5.6863666667,25,main
7938,2921,22,150,correct,different,9,j,5.6863666667,26,main
7938,2186,22,50,correct,same,1,f,5.6863666667,27,main
7938,3558,22,150,correct,same,11,f,5.6863666667,28,main
7938,2355,22,150,correct,different,8,j,5.6863666667,29,main
7938,5829,22,150,incorrect,same,10,j,5.6863666667,30,main
7938,4407,22,50,correct,different,1,j,5.6863666667,31,main
7938,7285,22,150,correct,different,5,j,5.6863666667,32,main
7938,3167,22,50,correct,same,10,f,5.6863666667,33,main
7938,3889,22,50,correct,different,6,j,5.6863666667,34,main
7938,5747,22,150,correct,different,10,j,5.6863666667,35,main
7938,5212,22,150,correct,same,8,f,5.6863666667,36,main
7938,3818,22,150,correct,different,3,j,5.6863666667,37,main
7938,7600,22,150,correct,same,7,f,5.6863666667,38,main
7938,29891,22,150,incorrect,same,5,j,5.6863666667,39,main
7938,4357,22,50,incorrect,different,10,f,5.6863666667,40,main
7938,5751,22,150,correct,same,2,f,5.6863666667,41,main
7938,2590,22,50,correct,same,9,f,5.6863666667,42,main
7938,2223,22,150,incorrect,same,9,j,5.6863666667,43,main
7938,4870,22,150,correct,same,12,f,5.6863666667,44,main
7938,5993,22,150,correct,same,6,f,5.6863666667,45,main
7938,3165,22,50,correct,same,7,f,5.6863666667,46,main
7938,10292,22,50,correct,same,4,f,5.6863666667,47,main
7938,1975,22,50,correct,same,12,f,5.6863666667,48,main
7933,7650,21,50,correct,same,13,f,4.5225666667,1,practice
7933,5235,21,150,correct,different,14,j,4.5225666667,2,practice
7933,2508,21,50,correct,different,14,j,4.5225666667,3,practice
7933,1890,21,50,correct,same,14,f,4.5225666667,4,practice
7933,2227,21,150,correct,different,15,j,4.5225666667,5,practice
7933,2114,21,50,incorrect,same,15,j,4.5225666667,6,practice
7933,2792,21,50,correct,different,15,j,4.5225666667,7,practice
7933,3649,21,150,correct,same,13,f,4.5225666667,8,practice
7933,2054,21,150,incorrect,different,13,f,4.5225666667,9,practice
7933,4600,21,50,correct,different,13,j,4.5225666667,10,practice
7933,3316,21,150,incorrect,same,14,j,4.5225666667,11,practice
7933,2247,21,150,correct,same,15,f,4.5225666667,12,practice
7933,2998,21,50,correct,same,12,f,4.5225666667,1,main
7933,6473,21,150,correct,different,6,j,4.5225666667,2,main
7933,4767,21,50,incorrect,different,8,f,4.5225666667,3,main
7933,4200,21,50,correct,same,11,f,4.5225666667,4,main
7933,4855,21,50,correct,different,3,j,4.5225666667,5,main
7933,9667,21,150,correct,same,10,f,4.5225666667,6,main
7933,2965,21,150,correct,same,7,f,4.5225666667,7,main
7933,6957,21,150,correct,different,11,j,4.5225666667,8,main
7933,6470,21,50,correct,different,9,j,4.5225666667,9,main
7933,8273,21,50,correct,different,6,j,4.5225666667,10,main
7933,7939,21,150,correct,different,3,j,4.5225666667,11,main
7933,2517,21,50,correct,same,9,f,4.5225666667,12,main
7933,4828,21,150,correct,same,9,f,4.5225666667,13,main
7933,4279,21,150,correct,same,11,f,4.5225666667,14,main
7933,3310,21,50,correct,different,5,j,4.5225666667,15,main
7933,1910,21,50,correct,same,1,f,4.5225666667,16,main
7933,2321,21,150,correct,same,3,f,4.5225666667,17,main
7933,1960,21,50,correct,same,3,f,4.5225666667,18,main
7933,1655,21,50,incorrect,same,7,j,4.5225666667,19,main
7933,3586,21,150,correct,same,8,f,4.5225666667,20,main
7933,1843,21,50,correct,different,12,j,4.5225666667,21,main
7933,2295,21,50,correct,same,8,f,4.5225666667,22,main
7933,4176,21,150,correct,same,6,f,4.5225666667,23,main
7933,3178,21,50,incorrect,different,10,f,4.5225666667,24,main
7933,4502,21,150,correct,different,1,j,4.5225666667,25,main
7933,3343,21,50,correct,different,7,j,4.5225666667,26,main
7933,5572,21,150,correct,different,10,j,4.5225666667,27,main
7933,5000,21,150,correct,different,4,j,4.5225666667,28,main
7933,5900,21,50,correct,same,6,f,4.5225666667,29,main
7933,6724,21,150,incorrect,same,2,j,4.5225666667,30,main
7933,3050,21,50,correct,same,4,f,4.5225666667,31,main
7933,2318,21,50,correct,same,10,f,4.5225666667,32,main
7933,1668,21,50,correct,same,5,f,4.5225666667,33,main
7933,9411,21,50,correct,different,11,j,4.5225666667,34,main
7933,3319,21,150,correct,same,5,f,4.5225666667,35,main
7933,4547,21,150,correct,different,5,j,4.5225666667,36,main
7933,2827,21,50,correct,different,1,j,4.5225666667,37,main
7933,6922,21,150,correct,different,12,j,4.5225666667,38,main
7933,1801,21,50,correct,different,2,j,4.5225666667,39,main
7933,2606,21,50,correct,same,2,f,4.5225666667,40,main
7933,2193,21,150,correct,different,8,j,4.5225666667,41,main
7933,2351,21,150,correct,different,2,j,4.5225666667,42,main
7933,2371,21,150,correct,same,1,f,4.5225666667,43,main
7933,2086,21,150,correct,same,4,f,4.5225666667,44,main
7933,3687,21,150,correct,different,9,j,4.5225666667,45,main
7933,2105,21,50,correct,different,4,j,4.5225666667,46,main
7933,2819,21,150,correct,different,7,j,4.5225666667,47,main
7933,2410,21,150,correct,same,12,f,4.5225666667,48,main
7914,3542,,50,correct,same,13,f,2.8409,1,practice
7914,3687,,150,correct,different,15,j,2.8409,2,practice
7914,3246,,150,incorrect,same,14,j,2.8409,3,practice
7914,4000,,50,correct,different,15,j,2.8409,4,practice
7914,2659,,50,correct,different,13,j,2.8409,5,practice
7914,1510,,50,correct,same,14,f,2.8409,6,practice
7914,2293,,50,correct,different,14,j,2.8409,7,practice
7914,1987,,150,incorrect,different,13,f,2.8409,8,practice
7914,1913,,150,correct,same,13,f,2.8409,9,practice
7914,2663,,150,correct,different,14,j,2.8409,10,practice
7914,2838,,150,correct,same,15,f,2.8409,11,practice
7914,1727,,50,correct,same,15,f,2.8409,12,practice
7914,1946,,50,incorrect,different,9,f,2.8409,1,main
7914,2797,,50,correct,different,8,j,2.8409,2,main
7914,3605,,50,correct,different,2,j,2.8409,3,main
7914,2523,,150,correct,different,4,j,2.8409,4,main
7914,2989,,150,correct,same,6,f,2.8409,5,main
7914,2700,,150,correct,same,8,f,2.8409,6,main
7914,2846,,150,incorrect,same,3,j,2.8409,7,main
7914,2838,,50,correct,same,5,f,2.8409,8,main
7914,1928,,50,correct,different,1,j,2.8409,9,main
7914,1920,,50,incorrect,different,7,f,2.8409,10,main
7914,2413,,150,correct,different,1,j,2.8409,11,main
7914,1812,,50,correct,same,2,f,2.8409,12,main
7914,2922,,150,correct,same,11,f,2.8409,13,main
7914,2117,,150,correct,same,12,f,2.8409,14,main
7914,2581,,150,correct,different,9,j,2.8409,15,main
7914,2603,,150,incorrect,different,8,f,2.8409,16,main
7914,1586,,50,correct,same,12,f,2.8409,17,main
7914,1983,,50,correct,different,6,j,2.8409,18,main
7914,1565,,50,correct,same,1,f,2.8409,19,main
7914,2235,,150,correct,same,4,f,2.8409,20,main
7914,3285,,150,correct,same,9,f,2.8409,21,main
7914,2077,,150,correct,different,12,j,2.8409,22,main
7914,1657,,50,correct,same,11,f,2.8409,23,main
7914,2171,,150,correct,same,5,f,2.8409,24,main
7914,2564,,50,incorrect,same,6,j,2.8409,25,main
7914,1478,,50,correct,same,3,f,2.8409,26,main
7914,2401,,150,correct,different,7,j,2.8409,27,main
7914,1669,,150,incorrect,different,3,f,2.8409,28,main
7914,2046,,50,correct,same,7,f,2.8409,29,main
7914,2998,,50,correct,different,12,j,2.8409,30,main
7914,2572,,50,correct,same,4,f,2.8409,31,main
7914,2608,,50,correct,different,3,j,2.8409,32,main
7914,2235,,150,correct,different,11,j,2.8409,33,main
7914,1391,,50,correct,same,10,f,2.8409,34,main
7914,3792,,50,correct,different,10,j,2.8409,35,main
7914,1987,,150,incorrect,same,7,j,2.8409,36,main
7914,1611,,50,correct,same,9,f,2.8409,37,main
7914,2220,,50,correct,different,5,j,2.8409,38,main
7914,3610,,150,correct,different,5,j,2.8409,39,main
7914,2186,,150,correct,same,10,f,2.8409,40,main
7914,1685,,50,correct,same,8,f,2.8409,41,main
7914,1601,,50,correct,different,11,j,2.8409,42,main
7914,2137,,150,incorrect,different,6,f,2.8409,43,main
7914,3131,,50,correct,different,4,j,2.8409,44,main
7914,3140,,150,correct,same,2,f,2.8409,45,main
7914,1688,,150,correct,different,2,j,2.8409,46,main
7914,3330,,150,incorrect,different,10,f,2.8409,47,main
7914,1987,,150,correct,same,1,f,2.8409,48,main
7915,6356,25,150,incorrect,different,14,f,7.26625,1,practice
7915,7184,25,50,correct,same,14,f,7.26625,2,practice
7915,6135,25,50,incorrect,different,13,f,7.26625,3,practice
7915,7158,25,150,correct,different,13,j,7.26625,4,practice
7915,4985,25,50,correct,different,14,j,7.26625,5,practice
7915,7441,25,150,correct,same,13,f,7.26625,6,practice
7915,3956,25,50,incorrect,different,15,f,7.26625,7,practice
7915,4984,25,150,correct,same,14,f,7.26625,8,practice
7915,3977,25,150,correct,different,15,j,7.26625,9,practice
7915,3710,25,50,correct,same,13,f,7.26625,10,practice
7915,5226,25,50,correct,same,15,f,7.26625,11,practice
7915,4238,25,150,incorrect,same,15,j,7.26625,12,practice
7915,3389,25,50,correct,same,9,f,7.26625,1,main
7915,5289,25,50,correct,different,11,j,7.26625,2,main
7915,3337,25,50,correct,same,8,f,7.26625,3,main
7915,5958,25,50,correct,different,5,j,7.26625,4,main
7915,5482,25,50,correct,same,12,f,7.26625,5,main
7915,4738,25,50,correct,same,3,f,7.26625,6,main
7915,7238,25,150,correct,same,12,f,7.26625,7,main
7915,4497,25,150,correct,different,1,j,7.26625,8,main
7915,6019,25,150,incorrect,same,10,j,7.26625,9,main
7915,8550,25,150,correct,same,4,f,7.26625,10,main
7915,4699,25,50,correct,same,10,f,7.26625,11,main
7915,6508,25,150,correct,different,3,j,7.26625,12,main
7915,3849,25,50,correct,same,2,f,7.26625,13,main
7915,5557,25,150,correct,different,7,j,7.26625,14,main
7915,2759,25,50,correct,same,1,f,7.26625,15,main
7915,2299,25,50,correct,different,1,j,7.26625,16,main
7915,6208,25,50,correct,different,6,j,7.26625,17,main
7915,3780,25,150,incorrect,same,9,j,7.26625,18,main
7915,9810,25,150,correct,different,2,j,7.26625,19,main
7915,6477,25,150,incorrect,same,6,j,7.26625,20,main
7915,5539,25,150,correct,different,11,j,7.26625,21,main
7915,5238,25,50,correct,different,10,j,7.26625,22,main
7915,6930,25,150,correct,different,10,j,7.26625,23,main
7915,4059,25,150,correct,same,1,f,7.26625,24,main
7915,4668,25,50,correct,same,4,f,7.26625,25,main
7915,8776,25,50,correct,different,4,j,7.26625,26,main
7915,6268,25,50,correct,different,3,j,7.26625,27,main
7915,3719,25,50,correct,same,6,f,7.26625,28,main
7915,7880,25,150,incorrect,same,7,j,7.26625,29,main
7915,5118,25,50,correct,different,9,j,7.26625,30,main
7915,5131,25,150,correct,different,9,j,7.26625,31,main
7915,10739,25,150,incorrect,different,5,f,7.26625,32,main
7915,8328,25,150,incorrect,same,11,j,7.26625,33,main
7915,6449,25,150,correct,different,4,j,7.26625,34,main
7915,8072,25,150,incorrect,same,2,j,7.26625,35,main
7915,7761,25,150,correct,same,8,f,7.26625,36,main
7915,10398,25,50,correct,different,7,j,7.26625,37,main
7915,12131,25,150,incorrect,different,8,f,7.26625,38,main
7915,5748,25,50,correct,different,2,j,7.26625,39,main
7915,6671,25,150,correct,different,6,j,7.26625,40,main
7915,3278,25,50,correct,same,7,f,7.26625,41,main
7915,11299,25,150,incorrect,same,3,j,7.26625,42,main
7915,5008,25,50,correct,same,5,f,7.26625,43,main
7915,10309,25,50,correct,different,8,j,7.26625,44,main
7915,5299,25,150,correct,same,5,f,7.26625,45,main
7915,4319,25,50,correct,same,11,f,7.26625,46,main
7915,16740,25,150,correct,different,12,j,7.26625,47,main
7915,3857,25,50,correct,different,12,j,7.26625,48,main
7916,2750,,50,correct,same,13,f,3.1574666667,1,practice
7916,2787,,150,correct,different,14,j,3.1574666667,2,practice
7916,1938,,50,correct,same,14,f,3.1574666667,3,practice
7916,3108,,150,correct,same,15,f,3.1574666667,4,practice
7916,2072,,50,correct,same,15,f,3.1574666667,5,practice
7916,1421,,50,correct,different,15,j,3.1574666667,6,practice
7916,1472,,50,correct,different,14,j,3.1574666667,7,practice
7916,2146,,150,correct,same,14,f,3.1574666667,8,practice
7916,1913,,150,correct,different,15,j,3.1574666667,9,practice
7916,1373,,50,correct,different,13,j,3.1574666667,10,practice
7916,2089,,150,correct,same,13,f,3.1574666667,11,practice
7916,1512,,150,correct,different,13,j,3.1574666667,12,practice
7916,3032,,50,correct,different,11,j,3.1574666667,1,main
7916,2102,,150,correct,different,2,j,3.1574666667,2,main
7916,2468,,150,correct,different,10,j,3.1574666667,3,main
7916,2272,,50,correct,different,8,j,3.1574666667,4,main
7916,3613,,150,correct,same,5,f,3.1574666667,5,main
7916,2700,,150,correct,different,12,j,3.1574666667,6,main
7916,2045,,50,correct,same,4,f,3.1574666667,7,main
7916,1916,,150,correct,different,8,j,3.1574666667,8,main
7916,2084,,50,correct,different,4,j,3.1574666667,9,main
7916,1858,,150,correct,same,8,f,3.1574666667,10,main
7916,2270,,150,correct,same,7,f,3.1574666667,11,main
7916,2292,,50,correct,different,12,j,3.1574666667,12,main
7916,1886,,150,correct,different,5,j,3.1574666667,13,main
7916,2193,,50,correct,same,11,f,3.1574666667,14,main
7916,1856,,50,correct,same,6,f,3.1574666667,15,main
7916,2382,,50,correct,different,10,j,3.1574666667,16,main
7916,2622,,150,correct,different,1,j,3.1574666667,17,main
7916,3416,,50,correct,different,5,j,3.1574666667,18,main
7916,2730,,50,correct,same,7,f,3.1574666667,19,main
7916,1570,,150,correct,different,7,j,3.1574666667,20,main
7916,1478,,50,correct,same,9,f,3.1574666667,21,main
7916,2790,,150,correct,different,11,j,3.1574666667,22,main
7916,1848,,50,correct,different,9,j,3.1574666667,23,main
7916,1567,,50,correct,same,2,f,3.1574666667,24,main
7916,3475,,150,correct,same,10,f,3.1574666667,25,main
7916,1986,,150,correct,same,1,f,3.1574666667,26,main
7916,2125,,150,correct,same,12,f,3.1574666667,27,main
7916,2104,,150,correct,same,3,f,3.1574666667,28,main
7916,2095,,150,correct,same,11,f,3.1574666667,29,main
7916,3258,,50,correct,different,6,j,3.1574666667,30,main
7916,2322,,150,correct,different,9,j,3.1574666667,31,main
7916,1966,,50,correct,different,3,j,3.1574666667,32,main
7916,2453,,50,correct,same,3,f,3.1574666667,33,main
7916,3069,,150,correct,same,6,f,3.1574666667,34,main
7916,3178,,150,correct,same,4,f,3.1574666667,35,main
7916,1736,,50,correct,different,1,j,3.1574666667,36,main
7916,1490,,50,correct,same,8,f,3.1574666667,37,main
7916,2074,,150,correct,same,9,f,3.1574666667,38,main
7916,1867,,50,correct,different,2,j,3.1574666667,39,main
7916,1619,,50,correct,different,7,j,3.1574666667,40,main
7916,2780,,150,correct,different,4,j,3.1574666667,41,main
7916,2453,,150,correct,same,2,f,3.1574666667,42,main
7916,2134,,50,correct,same,1,f,3.1574666667,43,main
7916,2156,,150,correct,different,6,j,3.1574666667,44,main
7916,1905,,50,correct,same,12,f,3.1574666667,45,main
7916,1479,,50,correct,same,10,f,3.1574666667,46,main
7916,1866,,50,correct,same,5,f,3.1574666667,47,main
7916,2165,,150,correct,different,3,j,3.1574666667,48,main
7918,4955,23,150,correct,same,14,f,3.6257666667,1,practice
7918,2206,23,150,incorrect,different,14,f,3.6257666667,2,practice
7918,1998,23,50,correct,same,15,f,3.6257666667,3,practice
7918,1829,23,150,correct,same,15,f,3.6257666667,4,practice
7918,2480,23,50,correct,different,15,j,3.6257666667,5,practice
7918,1909,23,150,incorrect,different,13,f,3.6257666667,6,practice
7918,1571,23,50,correct,same,13,f,3.6257666667,7,practice
7918,1470,23,50,correct,different,13,j,3.6257666667,8,practice
7918,1864,23,50,correct,different,14,j,3.6257666667,9,practice
7918,1697,23,150,incorrect,different,15,f,3.6257666667,10,practice
7918,2026,23,50,correct,same,14,f,3.6257666667,11,practice
7918,1901,23,150,correct,same,13,f,3.6257666667,12,practice
7918,2059,23,50,correct,same,8,f,3.6257666667,1,main
7918,2219,23,50,correct,same,6,f,3.6257666667,2,main
7918,2425,23,150,correct,same,4,f,3.6257666667,3,main
7918,3128,23,150,incorrect,same,9,j,3.6257666667,4,main
7918,2254,23,150,correct,same,8,f,3.6257666667,5,main
7918,2941,23,150,correct,same,5,f,3.6257666667,6,main
7918,1971,23,150,correct,different,4,j,3.6257666667,7,main
7918,3564,23,150,correct,different,3,j,3.6257666667,8,main
7918,5324,23,150,correct,different,10,j,3.6257666667,9,main
7918,2079,23,50,correct,different,11,j,3.6257666667,10,main
7918,2971,23,150,correct,same,2,f,3.6257666667,11,main
7918,1968,23,50,correct,same,3,f,3.6257666667,12,main
7918,1586,23,50,incorrect,different,9,f,3.6257666667,13,main
7918,2676,23,150,correct,same,12,f,3.6257666667,14,main
7918,2455,23,150,correct,same,3,f,3.6257666667,15,main
7918,2137,23,50,correct,different,4,j,3.6257666667,16,main
7918,3158,23,150,correct,different,1,j,3.6257666667,17,main
7918,2868,23,150,correct,different,5,j,3.6257666667,18,main
7918,2120,23,50,correct,different,5,j,3.6257666667,19,main
7918,1315,23,50,correct,same,1,f,3.6257666667,20,main
7918,2198,23,50,correct,different,12,j,3.6257666667,21,main
7918,2533,23,50,correct,same,5,f,3.6257666667,22,main
7918,2214,23,50,correct,different,2,j,3.6257666667,23,main
7918,2389,23,150,correct,different,11,j,3.6257666667,24,main
7918,4366,23,150,correct,different,9,j,3.6257666667,25,main
7918,1893,23,150,correct,same,1,f,3.6257666667,26,main
7918,1903,23,50,correct,same,10,f,3.6257666667,27,main
7918,1441,23,50,correct,different,1,j,3.6257666667,28,main
7918,3081,23,50,correct,same,7,f,3.6257666667,29,main
7918,2824,23,150,correct,different,12,j,3.6257666667,30,main
7918,1673,23,50,incorrect,different,3,f,3.6257666667,31,main
7918,1388,23,50,correct,same,9,f,3.6257666667,32,main
7918,1412,23,50,correct,same,2,f,3.6257666667,33,main
7918,1914,23,50,correct,different,8,j,3.6257666667,34,main
7918,4453,23,150,incorrect,same,10,j,3.6257666667,35,main
7918,1356,23,50,correct,same,11,f,3.6257666667,36,main
7918,2397,23,150,incorrect,same,7,j,3.6257666667,37,main
7918,2904,23,150,correct,different,7,j,3.6257666667,38,main
7918,1840,23,150,incorrect,different,8,f,3.6257666667,39,main
7918,5095,23,150,incorrect,different,6,f,3.6257666667,40,main
7918,2632,23,150,correct,different,2,j,3.6257666667,41,main
7918,1983,23,50,correct,different,7,j,3.6257666667,42,main
7918,3525,23,150,correct,same,11,f,3.6257666667,43,main
7918,2211,23,50,correct,different,6,j,3.6257666667,44,main
7918,2446,23,150,correct,same,6,f,3.6257666667,45,main
7918,1539,23,50,correct,same,12,f,3.6257666667,46,main
7918,2234,23,50,correct,same,4,f,3.6257666667,47,main
7918,2311,23,50,correct,different,10,j,3.6257666667,48,main
7919,2341,,50,correct,different,13,j,3.6111333333,1,practice
7919,3989,,150,correct,different,15,j,3.6111333333,2,practice
7919,3924,,150,correct,same,15,f,3.6111333333,3,practice
7919,2092,,50,correct,same,13,f,3.6111333333,4,practice
7919,2514,,150,incorrect,different,13,f,3.6111333333,5,practice
7919,2737,,150,correct,same,14,f,3.6111333333,6,practice
7919,2210,,150,incorrect,same,13,j,3.6111333333,7,practice
7919,1830,,50,correct,different,14,j,3.6111333333,8,practice
7919,1423,,50,correct,different,15,j,3.6111333333,9,practice
7919,1450,,50,correct,same,14,f,3.6111333333,10,practice
7919,1460,,50,correct,same,15,f,3.6111333333,11,practice
7919,1674,,150,correct,different,14,j,3.6111333333,12,practice
7919,2519,,150,correct,different,11,j,3.6111333333,1,main
7919,3316,,150,correct,different,7,j,3.6111333333,2,main
7919,2984,,50,correct,same,10,f,3.6111333333,3,main
7919,1864,,50,correct,different,11,j,3.6111333333,4,main
7919,2431,,150,correct,different,6,j,3.6111333333,5,main
7919,3223,,50,correct,different,8,j,3.6111333333,6,main
7919,1959,,150,correct,same,11,f,3.6111333333,7,main
7919,3483,,150,correct,different,3,j,3.6111333333,8,main
7919,2471,,150,correct,different,2,j,3.6111333333,9,main
7919,3645,,50,correct,different,10,j,3.6111333333,10,main
7919,3543,,150,incorrect,different,9,f,3.6111333333,11,main
7919,2439,,50,correct,different,9,j,3.6111333333,12,main
7919,2264,,50,correct,same,9,f,3.6111333333,13,main
7919,3404,,150,correct,same,7,f,3.6111333333,14,main
7919,2816,,50,correct,different,12,j,3.6111333333,15,main
7919,2815,,50,correct,same,4,f,3.6111333333,16,main
7919,2439,,150,correct,same,8,f,3.6111333333,17,main
7919,2479,,150,incorrect,different,12,f,3.6111333333,18,main
7919,1967,,150,correct,same,1,f,3.6111333333,19,main
7919,3873,,150,correct,different,5,j,3.6111333333,20,main
7919,1960,,50,correct,same,3,f,3.6111333333,21,main
7919,3833,,150,correct,different,4,j,3.6111333333,22,main
7919,3324,,150,correct,same,9,f,3.6111333333,23,main
7919,2720,,50,correct,same,6,f,3.6111333333,24,main
7919,3609,,150,correct,same,5,f,3.6111333333,25,main
7919,1608,,50,correct,same,8,f,3.6111333333,26,main
7919,2624,,50,correct,same,5,f,3.6111333333,27,main
7919,3654,,150,correct,different,10,j,3.6111333333,28,main
7919,1520,,50,correct,same,2,f,3.6111333333,29,main
7919,3103,,150,incorrect,same,3,j,3.6111333333,30,main
7919,1575,,50,correct,different,1,j,3.6111333333,31,main
7919,2848,,150,correct,different,8,j,3.6111333333,32,main
7919,4564,,50,correct,different,4,j,3.6111333333,33,main
7919,1359,,50,correct,same,1,f,3.6111333333,34,main
7919,2559,,150,correct,same,2,f,3.6111333333,35,main
7919,2055,,50,incorrect,different,5,f,3.6111333333,36,main
7919,1727,,50,correct,different,6,j,3.6111333333,37,main
7919,2399,,150,correct,same,6,f,3.6111333333,38,main
7919,2039,,50,correct,same,12,f,3.6111333333,39,main
7919,1559,,50,correct,same,11,f,3.6111333333,40,main
7919,1743,,150,correct,different,1,j,3.6111333333,41,main
7919,2215,,150,correct,same,4,f,3.6111333333,42,main
7919,2415,,150,correct,same,12,f,3.6111333333,43,main
7919,3040,,50,correct,different,2,j,3.6111333333,44,main
7919,3135,,150,incorrect,same,10,j,3.6111333333,45,main
7919,2984,,50,incorrect,different,7,f,3.6111333333,46,main
7919,3981,,50,correct,same,7,f,3.6111333333,47,main
7919,2094,,50,correct,different,3,j,3.6111333333,48,main
7920,6307,22,150,correct,different,15,j,3.1857666667,1,practice
7920,1352,22,50,correct,same,14,f,3.1857666667,2,practice
7920,1626,22,50,correct,different,15,j,3.1857666667,3,practice
7920,2430,22,150,correct,different,13,j,3.1857666667,4,practice
7920,1595,22,50,incorrect,different,14,f,3.1857666667,5,practice
7920,2206,22,150,correct,different,14,j,3.1857666667,6,practice
7920,1465,22,150,incorrect,same,15,j,3.1857666667,7,practice
7920,1640,22,50,correct,different,13,j,3.1857666667,8,practice
7920,2054,22,150,correct,same,14,f,3.1857666667,9,practice
7920,1786,22,50,correct,same,15,f,3.1857666667,10,practice
7920,1432,22,50,correct,same,13,f,3.1857666667,11,practice
7920,1950,22,150,correct,same,13,f,3.1857666667,12,practice
7920,1560,22,50,correct,different,6,j,3.1857666667,1,main
7920,1383,22,150,correct,different,10,j,3.1857666667,2,main
7920,1858,22,150,correct,same,1,f,3.1857666667,3,main
7920,2367,22,150,correct,same,10,f,3.1857666667,4,main
7920,1728,22,50,correct,same,9,f,3.1857666667,5,main
7920,1604,22,50,correct,different,1,j,3.1857666667,6,main
7920,1558,22,150,incorrect,same,9,j,3.1857666667,7,main
7920,1515,22,150,correct,different,1,j,3.1857666667,8,main
7920,1883,22,150,incorrect,same,12,j,3.1857666667,9,main
7920,1805,22,150,correct,same,5,f,3.1857666667,10,main
7920,1632,22,50,incorrect,different,9,f,3.1857666667,11,main
7920,2192,22,150,correct,same,2,f,3.1857666667,12,main
7920,2007,22,150,correct,different,3,j,3.1857666667,13,main
7920,1664,22,150,correct,different,7,j,3.1857666667,14,main
7920,2283,22,50,incorrect,different,3,f,3.1857666667,15,main
7920,2609,22,150,correct,different,6,j,3.1857666667,16,main
7920,2707,22,50,correct,different,11,j,3.1857666667,17,main
7920,1663,22,150,correct,same,11,f,3.1857666667,18,main
7920,1960,22,50,correct,same,5,f,3.1857666667,19,main
7920,1740,22,150,correct,same,6,f,3.1857666667,20,main
7920,1526,22,50,correct,same,1,f,3.1857666667,21,main
7920,2832,22,150,correct,different,9,j,3.1857666667,22,main
7920,3380,22,150,incorrect,different,2,f,3.1857666667,23,main
7920,2149,22,50,correct,different,8,j,3.1857666667,24,main
7920,1779,22,50,correct,same,6,f,3.1857666667,25,main
7920,2466,22,150,correct,different,11,j,3.1857666667,26,main
7920,1737,22,50,correct,same,11,f,3.1857666667,27,main
7920,1455,22,50,correct,same,3,f,3.1857666667,28,main
7920,1955,22,50,incorrect,different,2,f,3.1857666667,29,main
7920,1434,22,50,correct,same,8,f,3.1857666667,30,main
7920,1618,22,50,correct,different,12,j,3.1857666667,31,main
7920,2939,22,150,correct,different,5,j,3.1857666667,32,main
7920,1905,22,50,correct,same,7,f,3.1857666667,33,main
7920,2337,22,150,correct,different,12,j,3.1857666667,34,main
7920,3389,22,150,correct,same,3,f,3.1857666667,35,main
7920,1339,22,50,correct,same,12,f,3.1857666667,36,main
7920,1667,22,50,correct,same,10,f,3.1857666667,37,main
7920,1681,22,50,correct,different,5,j,3.1857666667,38,main
7920,1722,22,150,incorrect,same,7,j,3.1857666667,39,main
7920,2868,22,50,correct,different,10,j,3.1857666667,40,main
7920,1385,22,50,correct,same,2,f,3.1857666667,41,main
7920,1796,22,150,correct,different,8,j,3.1857666667,42,main
7920,2071,22,150,correct,same,4,f,3.1857666667,43,main
7920,1537,22,150,correct,same,8,f,3.1857666667,44,main
7920,1731,22,150,incorrect,different,4,f,3.1857666667,45,main
7920,1444,22,50,correct,same,4,f,3.1857666667,46,main
7920,2253,22,50,correct,different,7,j,3.1857666667,47,main
7920,1813,22,50,correct,different,4,j,3.1857666667,48,main
7921,3202,23,150,incorrect,different,14,f,3.8475666667,1,practice
7921,1992,23,50,incorrect,same,13,j,3.8475666667,2,practice
7921,3845,23,150,correct,different,15,j,3.8475666667,3,practice
7921,12610,23,50,incorrect,different,14,f,3.8475666667,4,practice
7921,2308,23,50,correct,different,15,j,3.8475666667,5,practice
7921,1665,23,50,correct,same,15,f,3.8475666667,6,practice
7921,2129,23,150,correct,different,13,j,3.8475666667,7,practice
7921,1884,23,50,correct,same,14,f,3.8475666667,8,practice
7921,2788,23,150,correct,same,15,f,3.8475666667,9,practice
7921,3228,23,150,correct,same,13,f,3.8475666667,10,practice
7921,1594,23,150,correct,same,14,f,3.8475666667,11,practice
7921,1415,23,50,correct,different,13,j,3.8475666667,12,practice
7921,1377,23,50,correct,same,1,f,3.8475666667,1,main
7921,1506,23,150,incorrect,same,3,j,3.8475666667,2,main
7921,2827,23,150,correct,same,6,f,3.8475666667,3,main
7921,2872,23,150,incorrect,same,7,j,3.8475666667,4,main
7921,3652,23,150,correct,different,9,j,3.8475666667,5,main
7921,3416,23,150,correct,different,10,j,3.8475666667,6,main
7921,1740,23,50,correct,same,11,f,3.8475666667,7,main
7921,2746,23,150,correct,different,4,j,3.8475666667,8,main
7921,4353,23,150,incorrect,same,8,j,3.8475666667,9,main
7921,2326,23,50,correct,same,12,f,3.8475666667,10,main
7921,1584,23,50,correct,same,2,f,3.8475666667,11,main
7921,1834,23,50,correct,same,3,f,3.8475666667,12,main
7921,2339,23,150,correct,different,1,j,3.8475666667,13,main
7921,3689,23,150,correct,different,8,j,3.8475666667,14,main
7921,3837,23,150,correct,different,7,j,3.8475666667,15,main
7921,1473,23,50,correct,same,7,f,3.8475666667,16,main
7921,3006,23,150,correct,different,11,j,3.8475666667,17,main
7921,2135,23,150,correct,same,12,f,3.8475666667,18,main
7921,2663,23,50,correct,different,3,j,3.8475666667,19,main
7921,1577,23,50,correct,same,9,f,3.8475666667,20,main
7921,3227,23,50,correct,different,4,j,3.8475666667,21,main
7921,2096,23,50,correct,different,9,j,3.8475666667,22,main
7921,2828,23,150,correct,same,11,f,3.8475666667,23,main
7921,2972,23,50,correct,different,7,j,3.8475666667,24,main
7921,2987,23,50,correct,same,10,f,3.8475666667,25,main
7921,2081,23,50,correct,same,4,f,3.8475666667,26,main
7921,1550,23,50,correct,same,8,f,3.8475666667,27,main
7921,1735,23,150,correct,different,6,j,3.8475666667,28,main
7921,3482,23,150,correct,different,3,j,3.8475666667,29,main
7921,2152,23,150,correct,same,1,f,3.8475666667,30,main
7921,1883,23,50,correct,different,12,j,3.8475666667,31,main
7921,1922,23,50,correct,same,5,f,3.8475666667,32,main
7921,1618,23,50,correct,different,2,j,3.8475666667,33,main
7921,3430,23,50,incorrect,different,5,f,3.8475666667,34,main
7921,4574,23,150,incorrect,same,5,j,3.8475666667,35,main
7921,3418,23,150,incorrect,different,2,f,3.8475666667,36,main
7921,1529,23,50,correct,different,6,j,3.8475666667,37,main
7921,2365,23,50,correct,different,8,j,3.8475666667,38,main
7921,2912,23,150,correct,same,4,f,3.8475666667,39,main
7921,2291,23,150,incorrect,same,9,j,3.8475666667,40,main
7921,1567,23,50,correct,different,1,j,3.8475666667,41,main
7921,2780,23,50,correct,different,11,j,3.8475666667,42,main
7921,2536,23,50,correct,same,6,f,3.8475666667,43,main
7921,2738,23,150,correct,same,10,f,3.8475666667,44,main
7921,2829,23,50,correct,different,10,j,3.8475666667,45,main
7921,5302,23,150,correct,same,2,f,3.8475666667,46,main
7921,4222,23,150,incorrect,different,12,f,3.8475666667,47,main
7921,2870,23,150,correct,different,5,j,3.8475666667,48,main
7922,5628,21,150,correct,same,14,f,4.5084333333,1,practice
7922,2070,21,50,correct,same,14,f,4.5084333333,2,practice
7922,2538,21,50,correct,same,15,f,4.5084333333,3,practice
7922,2016,21,50,correct,different,14,j,4.5084333333,4,practice
7922,1367,21,50,correct,different,15,j,4.5084333333,5,practice
7922,1560,21,50,correct,different,13,j,4.5084333333,6,practice
7922,2572,21,150,correct,same,15,f,4.5084333333,7,practice
7922,2822,21,150,correct,different,14,j,4.5084333333,8,practice
7922,3256,21,150,correct,same,13,f,4.5084333333,9,practice
7922,2401,21,50,correct,same,13,f,4.5084333333,10,practice
7922,3153,21,150,correct,different,13,j,4.5084333333,11,practice
7922,2352,21,150,correct,different,15,j,4.5084333333,12,practice
7922,6624,21,150,correct,different,11,j,4.5084333333,1,main
7922,4569,21,150,correct,different,5,j,4.5084333333,2,main
7922,6681,21,150,incorrect,same,11,j,4.5084333333,3,main
7922,2915,21,150,correct,same,4,f,4.5084333333,4,main
7922,4815,21,50,correct,different,9,j,4.5084333333,5,main
7922,2585,21,50,correct,different,4,j,4.5084333333,6,main
7922,4028,21,150,correct,different,8,j,4.5084333333,7,main
7922,5517,21,150,incorrect,different,10,f,4.5084333333,8,main
7922,1848,21,50,correct,same,5,f,4.5084333333,9,main
7922,3222,21,50,correct,same,12,f,4.5084333333,10,main
7922,2408,21,50,correct,same,4,f,4.5084333333,11,main
7922,3221,21,50,correct,same,11,f,4.5084333333,12,main
7922,2525,21,150,correct,same,1,f,4.5084333333,13,main
7922,3604,21,150,correct,same,9,f,4.5084333333,14,main
7922,6198,21,150,correct,same,7,f,4.5084333333,15,main
7922,4113,21,50,correct,different,2,j,4.5084333333,16,main
7922,2651,21,50,correct,same,1,f,4.5084333333,17,main
7922,5306,21,50,correct,same,9,f,4.5084333333,18,main
7922,2203,21,50,correct,same,2,f,4.5084333333,19,main
7922,4019,21,150,correct,different,3,j,4.5084333333,20,main
7922,6351,21,150,correct,different,9,j,4.5084333333,21,main
7922,6517,21,50,correct,different,7,j,4.5084333333,22,main
7922,3551,21,150,correct,same,2,f,4.5084333333,23,main
7922,2224,21,50,correct,different,1,j,4.5084333333,24,main
7922,3844,21,150,correct,same,5,f,4.5084333333,25,main
7922,4438,21,150,correct,same,10,f,4.5084333333,26,main
7922,2634,21,50,correct,same,10,f,4.5084333333,27,main
7922,9849,21,150,correct,different,6,j,4.5084333333,28,main
7922,4145,21,150,correct,different,7,j,4.5084333333,29,main
7922,1843,21,50,correct,same,3,f,4.5084333333,30,main
7922,11071,21,150,correct,different,12,j,4.5084333333,31,main
7922,4486,21,50,correct,same,8,f,4.5084333333,32,main
7922,2588,21,50,correct,different,10,j,4.5084333333,33,main
7922,4609,21,50,correct,different,6,j,4.5084333333,34,main
7922,4285,21,150,correct,same,6,f,4.5084333333,35,main
7922,5881,21,150,correct,same,8,f,4.5084333333,36,main
7922,3721,21,150,correct,same,3,f,4.5084333333,37,main
7922,3141,21,50,incorrect,different,11,f,4.5084333333,38,main
7922,3713,21,150,correct,different,4,j,4.5084333333,39,main
7922,5757,21,150,correct,same,12,f,4.5084333333,40,main
7922,3445,21,150,correct,different,1,j,4.5084333333,41,main
7922,7928,21,150,correct,different,2,j,4.5084333333,42,main
7922,3344,21,50,correct,different,3,j,4.5084333333,43,main
7922,3500,21,50,correct,same,6,f,4.5084333333,44,main
7922,2763,21,50,correct,same,7,f,4.5084333333,45,main
7922,5411,21,50,correct,different,5,j,4.5084333333,46,main
7922,6215,21,50,correct,different,8,j,4.5084333333,47,main
7922,2725,21,50,correct,different,12,j,4.5084333333,48,main
7941,4147,20,150,correct,same,14,f,3.9223833333,1,practice
7941,2756,20,150,correct,same,15,f,3.9223833333,2,practice
7941,3584,20,50,correct,different,13,j,3.9223833333,3,practice
7941,3108,20,150,correct,same,13,f,3.9223833333,4,practice
7941,3382,20,150,correct,different,15,j,3.9223833333,5,practice
7941,2711,20,50,correct,same,13,f,3.9223833333,6,practice
7941,2064,20,50,correct,different,15,j,3.9223833333,7,practice
7941,3566,20,150,correct,different,14,j,3.9223833333,8,practice
7941,2545,20,150,correct,different,13,j,3.9223833333,9,practice
7941,2643,20,50,correct,different,14,j,3.9223833333,10,practice
7941,1762,20,50,correct,same,15,f,3.9223833333,11,practice
7941,1930,20,50,correct,same,14,f,3.9223833333,12,practice
7941,4209,20,150,incorrect,same,2,j,3.9223833333,1,main
7941,2345,20,50,correct,same,5,f,3.9223833333,2,main
7941,2385,20,150,correct,different,3,j,3.9223833333,3,main
7941,2777,20,150,correct,same,8,f,3.9223833333,4,main
7941,2099,20,50,correct,different,1,j,3.9223833333,5,main
7941,3714,20,150,correct,different,9,j,3.9223833333,6,main
7941,2633,20,50,correct,different,8,j,3.9223833333,7,main
7941,2505,20,150,correct,same,4,f,3.9223833333,8,main
7941,5818,20,150,correct,different,6,j,3.9223833333,9,main
7941,3663,20,150,correct,same,11,f,3.9223833333,10,main
7941,2753,20,50,correct,different,5,j,3.9223833333,11,main
7941,3729,20,50,correct,different,10,j,3.9223833333,12,main
7941,2785,20,150,correct,same,6,f,3.9223833333,13,main
7941,4990,20,150,incorrect,different,10,f,3.9223833333,14,main
7941,2505,20,50,correct,same,2,f,3.9223833333,15,main
7941,2379,20,150,correct,different,11,j,3.9223833333,16,main
7941,6397,20,150,correct,same,3,f,3.9223833333,17,main
7941,7452,20,150,correct,same,12,f,3.9223833333,18,main
7941,1939,20,50,correct,same,11,f,3.9223833333,19,main
7941,7716,20,50,correct,different,6,j,3.9223833333,20,main
7941,2641,20,50,correct,different,2,j,3.9223833333,21,main
7941,2441,20,50,correct,same,8,f,3.9223833333,22,main
7941,4256,20,150,correct,different,1,j,3.9223833333,23,main
7941,2824,20,150,correct,same,5,f,3.9223833333,24,main
7941,2714,20,150,correct,same,7,f,3.9223833333,25,main
7941,2034,20,50,correct,same,3,f,3.9223833333,26,main
7941,2602,20,150,correct,different,12,j,3.9223833333,27,main
7941,3113,20,50,correct,different,9,j,3.9223833333,28,main
7941,2194,20,50,correct,same,7,f,3.9223833333,29,main
7941,1915,20,50,correct,same,1,f,3.9223833333,30,main
7941,2162,20,50,correct,different,7,j,3.9223833333,31,main
7941,3121,20,150,correct,different,2,j,3.9223833333,32,main
7941,6039,20,50,correct,different,4,j,3.9223833333,33,main
7941,3088,20,50,correct,different,11,j,3.9223833333,34,main
7941,3073,20,50,correct,different,3,j,3.9223833333,35,main
7941,2768,20,150,correct,same,10,f,3.9223833333,36,main
7941,5656,20,150,correct,different,8,j,3.9223833333,37,main
7941,4102,20,150,correct,different,7,j,3.9223833333,38,main
7941,2410,20,50,correct,different,12,j,3.9223833333,39,main
7941,11529,20,150,correct,different,5,j,3.9223833333,40,main
7941,2160,20,150,correct,same,9,f,3.9223833333,41,main
7941,3440,20,150,correct,same,1,f,3.9223833333,42,main
7941,1827,20,50,correct,same,4,f,3.9223833333,43,main
7941,1930,20,50,correct,same,10,f,3.9223833333,44,main
7941,2776,20,50,correct,same,6,f,3.9223833333,45,main
7941,1858,20,50,correct,same,12,f,3.9223833333,46,main
7941,2794,20,150,correct,different,4,j,3.9223833333,47,main
7941,2274,20,50,correct,same,9,f,3.9223833333,48,main
7945,10821,23,50,correct,different,14,j,6.4813333333,1,practice
7945,6880,23,150,correct,same,13,f,6.4813333333,2,practice
7945,4413,23,150,incorrect,same,14,j,6.4813333333,3,practice
7945,2450,23,50,correct,different,13,j,6.4813333333,4,practice
7945,3389,23,50,correct,same,15,f,6.4813333333,5,practice
7945,3027,23,50,correct,same,13,f,6.4813333333,6,practice
7945,2443,23,50,correct,different,15,j,6.4813333333,7,practice
7945,3565,23,150,correct,different,13,j,6.4813333333,8,practice
7945,2398,23,150,correct,different,15,j,6.4813333333,9,practice
7945,5204,23,150,correct,different,14,j,6.4813333333,10,practice
7945,6867,23,150,correct,same,15,f,6.4813333333,11,practice
7945,2742,23,50,correct,same,14,f,6.4813333333,12,practice
7945,3198,23,50,correct,different,9,j,6.4813333333,1,main
7945,6010,23,150,correct,different,9,j,6.4813333333,2,main
7945,6017,23,150,correct,different,8,j,6.4813333333,3,main
7945,4866,23,150,correct,different,1,j,6.4813333333,4,main
7945,4581,23,150,correct,same,2,f,6.4813333333,5,main
7945,3310,23,150,correct,same,12,f,6.4813333333,6,main
7945,3271,23,50,correct,different,10,j,6.4813333333,7,main
7945,3196,23,50,correct,different,1,j,6.4813333333,8,main
7945,4112,23,150,correct,same,4,f,6.4813333333,9,main
7945,7529,23,150,correct,different,4,j,6.4813333333,10,main
7945,8884,23,150,correct,same,6,f,6.4813333333,11,main
7945,3068,23,50,correct,same,3,f,6.4813333333,12,main
7945,1859,23,50,correct,same,2,f,6.4813333333,13,main
7945,3393,23,50,correct,same,5,f,6.4813333333,14,main
7945,3191,23,50,correct,different,4,j,6.4813333333,15,main
7945,4585,23,50,correct,different,3,j,6.4813333333,16,main
7945,4611,23,150,correct,different,12,j,6.4813333333,17,main
7945,4733,23,50,correct,different,8,j,6.4813333333,18,main
7945,2250,23,50,correct,different,7,j,6.4813333333,19,main
7945,3044,23,150,incorrect,different,3,f,6.4813333333,20,main
7945,3791,23,50,correct,different,2,j,6.4813333333,21,main
7945,2551,23,150,incorrect,same,9,j,6.4813333333,22,main
7945,10416,23,150,correct,different,10,j,6.4813333333,23,main
7945,8168,23,150,correct,same,8,f,6.4813333333,24,main
7945,4971,23,50,correct,same,7,f,6.4813333333,25,main
7945,3158,23,50,correct,same,1,f,6.4813333333,26,main
7945,7072,23,150,correct,same,11,f,6.4813333333,27,main
7945,3491,23,150,correct,different,2,j,6.4813333333,28,main
7945,4990,23,150,correct,same,7,f,6.4813333333,29,main
7945,4098,23,50,correct,same,10,f,6.4813333333,30,main
7945,5085,23,50,correct,different,5,j,6.4813333333,31,main
7945,3358,23,150,correct,different,7,j,6.4813333333,32,main
7945,4859,23,50,correct,same,8,f,6.4813333333,33,main
7945,3546,23,50,correct,same,11,f,6.4813333333,34,main
7945,2381,23,50,correct,different,11,j,6.4813333333,35,main
7945,4652,23,150,correct,same,1,f,6.4813333333,36,main
7945,4950,23,50,correct,different,6,j,6.4813333333,37,main
7945,3059,23,50,correct,same,6,f,6.4813333333,38,main
7945,3469,23,50,correct,same,4,f,6.4813333333,39,main
7945,3419,23,150,correct,different,6,j,6.4813333333,40,main
7945,3087,23,50,correct,different,12,j,6.4813333333,41,main
7945,4543,23,150,correct,same,5,f,6.4813333333,42,main
7945,2554,23,50,correct,same,9,f,6.4813333333,43,main
7945,10020,23,150,correct,different,11,j,6.4813333333,44,main
7945,3302,23,150,correct,same,10,f,6.4813333333,45,main
7945,4582,23,150,correct,different,5,j,6.4813333333,46,main
7945,2417,23,50,correct,same,12,f,6.4813333333,47,main
7945,5390,23,150,correct,same,3,f,6.4813333333,48,main
7924,7063,21,150,correct,different,15,j,4.2933333333,1,practice
7924,2036,21,150,incorrect,same,14,j,4.2933333333,2,practice
7924,2380,21,50,correct,same,14,f,4.2933333333,3,practice
7924,2768,21,150,correct,different,14,j,4.2933333333,4,practice
7924,1958,21,150,incorrect,different,13,f,4.2933333333,5,practice
7924,2401,21,150,correct,same,13,f,4.2933333333,6,practice
7924,6182,21,50,correct,different,13,j,4.2933333333,7,practice
7924,4339,21,50,correct,different,14,j,4.2933333333,8,practice
7924,2693,21,50,correct,different,15,j,4.2933333333,9,practice
7924,3678,21,150,correct,same,15,f,4.2933333333,10,practice
7924,3264,21,50,correct,same,13,f,4.2933333333,11,practice
7924,1988,21,50,correct,same,15,f,4.2933333333,12,practice
7924,2622,21,50,correct,different,12,j,4.2933333333,1,main
7924,2044,21,50,correct,same,1,f,4.2933333333,2,main
7924,2050,21,50,correct,different,4,j,4.2933333333,3,main
7924,3113,21,50,incorrect,different,10,f,4.2933333333,4,main
7924,3655,21,50,correct,same,8,f,4.2933333333,5,main
7924,2529,21,50,correct,different,7,j,4.2933333333,6,main
7924,4758,21,150,incorrect,different,4,f,4.2933333333,7,main
7924,2681,21,150,correct,same,7,f,4.2933333333,8,main
7924,2604,21,50,correct,same,9,f,4.2933333333,9,main
7924,4682,21,50,correct,same,6,f,4.2933333333,10,main
7924,3687,21,150,correct,different,9,j,4.2933333333,11,main
7924,3987,21,150,correct,same,3,f,4.2933333333,12,main
7924,3312,21,50,incorrect,different,3,f,4.2933333333,13,main
7924,5698,21,150,correct,different,1,j,4.2933333333,14,main
7924,2589,21,50,correct,same,5,f,4.2933333333,15,main
7924,2705,21,50,correct,same,7,f,4.2933333333,16,main
7924,3899,21,150,correct,same,1,f,4.2933333333,17,main
7924,3136,21,50,correct,same,2,f,4.2933333333,18,main
7924,2167,21,50,correct,same,12,f,4.2933333333,19,main
7924,2824,21,50,correct,different,1,j,4.2933333333,20,main
7924,3876,21,50,correct,different,11,j,4.2933333333,21,main
7924,4160,21,150,incorrect,same,6,j,4.2933333333,22,main
7924,2938,21,150,correct,same,5,f,4.2933333333,23,main
7924,5319,21,150,correct,different,2,j,4.2933333333,24,main
7924,2085,21,150,correct,same,2,f,4.2933333333,25,main
7924,6294,21,150,correct,same,4,f,4.2933333333,26,main
7924,2261,21,50,correct,same,11,f,4.2933333333,27,main
7924,4412,21,50,correct,different,6,j,4.2933333333,28,main
7924,3326,21,50,correct,same,10,f,4.2933333333,29,main
7924,3853,21,150,correct,same,8,f,4.2933333333,30,main
7924,3189,21,150,incorrect,different,3,f,4.2933333333,31,main
7924,2946,21,150,correct,same,9,f,4.2933333333,32,main
7924,5234,21,150,correct,same,10,f,4.2933333333,33,main
7924,3768,21,50,incorrect,different,5,f,4.2933333333,34,main
7924,4159,21,150,correct,different,10,j,4.2933333333,35,main
7924,3353,21,150,incorrect,different,6,f,4.2933333333,36,main
7924,3244,21,150,incorrect,different,11,f,4.2933333333,37,main
7924,3885,21,150,correct,different,5,j,4.2933333333,38,main
7924,3266,21,50,correct,same,3,f,4.2933333333,39,main
7924,2558,21,50,correct,same,4,f,4.2933333333,40,main
7924,4313,21,150,correct,different,12,j,4.2933333333,41,main
7924,2395,21,50,incorrect,different,9,f,4.2933333333,42,main
7924,3456,21,50,correct,different,8,j,4.2933333333,43,main
7924,2734,21,150,correct,same,12,f,4.2933333333,44,main
7924,3545,21,50,correct,different,2,j,4.2933333333,45,main
7924,2742,21,150,correct,different,8,j,4.2933333333,46,main
7924,3627,21,150,correct,different,7,j,4.2933333333,47,main
7924,5164,21,150,incorrect,same,11,j,4.2933333333,48,main
7926,12519,21,150,incorrect,different,14,f,3.5634166667,1,practice
7926,1768,21,50,correct,same,15,f,3.5634166667,2,practice
7926,3096,21,150,correct,different,13,j,3.5634166667,3,practice
7926,2951,21,150,incorrect,same,14,j,3.5634166667,4,practice
7926,1859,21,50,correct,same,13,f,3.5634166667,5,practice
7926,1689,21,50,correct,different,14,j,3.5634166667,6,practice
7926,2069,21,150,correct,same,13,f,3.5634166667,7,practice
7926,1823,21,150,correct,same,15,f,3.5634166667,8,practice
7926,1522,21,50,correct,same,14,f,3.5634166667,9,practice
7926,1346,21,50,correct,different,13,j,3.5634166667,10,practice
7926,5454,21,150,correct,different,15,j,3.5634166667,11,practice
7926,1378,21,50,correct,different,15,j,3.5634166667,12,practice
7926,3391,21,150,correct,same,5,f,3.5634166667,1,main
7926,1937,21,50,correct,different,7,j,3.5634166667,2,main
7926,3297,21,150,correct,different,4,j,3.5634166667,3,main
7926,2290,21,150,correct,different,9,j,3.5634166667,4,main
7926,1353,21,50,correct,same,9,f,3.5634166667,5,main
7926,2781,21,150,correct,different,10,j,3.5634166667,6,main
7926,2419,21,50,correct,same,3,f,3.5634166667,7,main
7926,1576,21,50,correct,different,1,j,3.5634166667,8,main
7926,2054,21,50,correct,different,3,j,3.5634166667,9,main
7926,2715,21,50,correct,different,10,j,3.5634166667,10,main
7926,3412,21,50,correct,different,5,j,3.5634166667,11,main
7926,1794,21,150,correct,same,4,f,3.5634166667,12,main
7926,1483,21,50,correct,same,5,f,3.5634166667,13,main
7926,3613,21,150,correct,same,3,f,3.5634166667,14,main
7926,4593,21,150,incorrect,same,11,j,3.5634166667,15,main
7926,3230,21,150,correct,different,3,j,3.5634166667,16,main
7926,3076,21,50,correct,different,4,j,3.5634166667,17,main
7926,2016,21,50,correct,same,12,f,3.5634166667,18,main
7926,6025,21,150,incorrect,different,1,f,3.5634166667,19,main
7926,1901,21,150,correct,same,9,f,3.5634166667,20,main
7926,5682,21,150,correct,different,12,j,3.5634166667,21,main
7926,3849,21,150,correct,different,11,j,3.5634166667,22,main
7926,1624,21,50,correct,same,11,f,3.5634166667,23,main
7926,2363,21,50,correct,different,9,j,3.5634166667,24,main
7926,2374,21,50,correct,different,11,j,3.5634166667,25,main
7926,1278,21,50,correct,same,2,f,3.5634166667,26,main
7926,2868,21,150,correct,same,8,f,3.5634166667,27,main
7926,1872,21,50,correct,same,10,f,3.5634166667,28,main
7926,1359,21,50,correct,same,8,f,3.5634166667,29,main
7926,2052,21,150,correct,same,1,f,3.5634166667,30,main
7926,1771,21,50,correct,same,1,f,3.5634166667,31,main
7926,1888,21,150,correct,different,7,j,3.5634166667,32,main
7926,2965,21,150,correct,same,6,f,3.5634166667,33,main
7926,2341,21,150,correct,same,7,f,3.5634166667,34,main
7926,3472,21,50,correct,different,6,j,3.5634166667,35,main
7926,2444,21,50,correct,same,6,f,3.5634166667,36,main
7926,2239,21,150,correct,same,2,f,3.5634166667,37,main
7926,3087,21,150,correct,different,2,j,3.5634166667,38,main
7926,2016,21,150,correct,different,6,j,3.5634166667,39,main
7926,3271,21,50,correct,same,4,f,3.5634166667,40,main
7926,1933,21,50,correct,same,7,f,3.5634166667,41,main
7926,1555,21,150,correct,different,5,j,3.5634166667,42,main
7926,2854,21,150,correct,same,12,f,3.5634166667,43,main
7926,2182,21,50,correct,different,12,j,3.5634166667,44,main
7926,2487,21,50,correct,different,2,j,3.5634166667,45,main
7926,3392,21,150,correct,same,10,f,3.5634166667,46,main
7926,3382,21,50,correct,different,8,j,3.5634166667,47,main
7926,6403,21,150,correct,different,8,j,3.5634166667,48,main
7929,2564,21,150,incorrect,different,14,f,4.9169666667,1,practice
7929,2925,21,50,correct,same,15,f,4.9169666667,2,practice
7929,3237,21,150,incorrect,same,15,j,4.9169666667,3,practice
7929,2368,21,50,correct,different,15,j,4.9169666667,4,practice
7929,1736,21,150,correct,same,13,f,4.9169666667,5,practice
7929,2126,21,50,correct,same,14,f,4.9169666667,6,practice
7929,2027,21,50,correct,same,13,f,4.9169666667,7,practice
7929,5280,21,50,correct,different,14,j,4.9169666667,8,practice
7929,2626,21,150,correct,different,15,j,4.9169666667,9,practice
7929,2258,21,150,correct,same,14,f,4.9169666667,10,practice
7929,2697,21,150,incorrect,different,13,f,4.9169666667,11,practice
7929,1388,21,50,incorrect,different,13,f,4.9169666667,12,practice
7929,4477,21,150,correct,same,9,f,4.9169666667,1,main
7929,2440,21,50,correct,same,5,f,4.9169666667,2,main
7929,3738,21,150,correct,different,10,j,4.9169666667,3,main
7929,2417,21,150,correct,different,12,j,4.9169666667,4,main
7929,4399,21,150,correct,same,5,f,4.9169666667,5,main
7929,1678,21,50,correct,different,6,j,4.9169666667,6,main
7929,2971,21,50,correct,different,4,j,4.9169666667,7,main
7929,3696,21,150,correct,same,2,f,4.9169666667,8,main
7929,2469,21,150,correct,same,11,f,4.9169666667,9,main
7929,3870,21,150,correct,same,7,f,4.9169666667,10,main
7929,2417,21,50,correct,same,3,f,4.9169666667,11,main
7929,3998,21,150,correct,same,8,f,4.9169666667,12,main
7929,3159,21,50,correct,same,11,f,4.9169666667,13,main
7929,4650,21,50,correct,same,12,f,4.9169666667,14,main
7929,2878,21,150,correct,different,3,j,4.9169666667,15,main
7929,3329,21,150,correct,different,6,j,4.9169666667,16,main
7929,1928,21,50,correct,same,2,f,4.9169666667,17,main
7929,2210,21,150,correct,different,4,j,4.9169666667,18,main
7929,2228,21,150,correct,same,3,f,4.9169666667,19,main
7929,1718,21,50,correct,same,1,f,4.9169666667,20,main
7929,1599,21,50,correct,different,1,j,4.9169666667,21,main
7929,5250,21,150,correct,same,4,f,4.9169666667,22,main
7929,2977,21,50,correct,same,8,f,4.9169666667,23,main
7929,4620,21,50,correct,same,4,f,4.9169666667,24,main
7929,2949,21,150,incorrect,same,10,j,4.9169666667,25,main
7929,2217,21,50,correct,different,10,j,4.9169666667,26,main
7929,3920,21,50,correct,different,3,j,4.9169666667,27,main
7929,5058,21,150,correct,different,5,j,4.9169666667,28,main
7929,9968,21,150,incorrect,same,6,j,4.9169666667,29,main
7929,4014,21,50,correct,same,7,f,4.9169666667,30,main
7929,2914,21,50,correct,different,8,j,4.9169666667,31,main
7929,2018,21,50,correct,same,9,f,4.9169666667,32,main
7929,2409,21,50,correct,same,6,f,4.9169666667,33,main
7929,3460,21,150,correct,different,9,j,4.9169666667,34,main
7929,2577,21,50,correct,different,9,j,4.9169666667,35,main
7929,7800,21,150,incorrect,different,11,f,4.9169666667,36,main
7929,3508,21,150,incorrect,different,8,f,4.9169666667,37,main
7929,2739,21,50,correct,different,5,j,4.9169666667,38,main
7929,3029,21,150,correct,same,1,f,4.9169666667,39,main
7929,2990,21,150,correct,different,7,j,4.9169666667,40,main
7929,3798,21,50,correct,different,11,j,4.9169666667,41,main
7929,3379,21,150,correct,same,12,f,4.9169666667,42,main
7929,2369,21,150,incorrect,different,1,f,4.9169666667,43,main
7929,2540,21,50,correct,different,7,j,4.9169666667,44,main
7929,3998,21,50,correct,different,2,j,4.9169666667,45,main
7929,6700,21,150,correct,different,2,j,4.9169666667,46,main
7929,2768,21,50,correct,same,10,f,4.9169666667,47,main
7929,2398,21,50,correct,different,12,j,4.9169666667,48,main
7932,5439,21,50,correct,same,15,f,2.845,1,practice
7932,1835,21,50,correct,different,14,j,2.845,2,practice
7932,1191,21,50,correct,same,14,f,2.845,3,practice
7932,1474,21,150,correct,different,15,j,2.845,4,practice
7932,1255,21,50,correct,same,13,f,2.845,5,practice
7932,1156,21,50,correct,different,15,j,2.845,6,practice
7932,1733,21,150,correct,different,13,j,2.845,7,practice
7932,1440,21,150,correct,same,14,f,2.845,8,practice
7932,2339,21,150,correct,same,13,f,2.845,9,practice
7932,1400,21,150,correct,same,15,f,2.845,10,practice
7932,1267,21,50,correct,different,13,j,2.845,11,practice
7932,2645,21,150,correct,different,14,j,2.845,12,practice
7932,2563,21,150,correct,different,2,j,2.845,1,main
7932,2220,21,150,correct,different,11,j,2.845,2,main
7932,1896,21,150,correct,different,4,j,2.845,3,main
7932,1421,21,150,correct,same,11,f,2.845,4,main
7932,1633,21,150,correct,same,5,f,2.845,5,main
7932,1716,21,50,correct,different,5,j,2.845,6,main
7932,4528,21,150,correct,same,10,f,2.845,7,main
7932,1756,21,150,correct,different,3,j,2.845,8,main
7932,2017,21,50,correct,same,6,f,2.845,9,main
7932,2467,21,150,correct,different,9,j,2.845,10,main
7932,2105,21,50,correct,different,3,j,2.845,11,main
7932,1988,21,50,correct,different,2,j,2.845,12,main
7932,1741,21,150,correct,different,5,j,2.845,13,main
7932,2472,21,150,correct,different,8,j,2.845,14,main
7932,1366,21,50,correct,same,2,f,2.845,15,main
7932,2056,21,50,correct,different,4,j,2.845,16,main
7932,1133,21,50,correct,same,3,f,2.845,17,main
7932,1276,21,50,correct,same,4,f,2.845,18,main
7932,1181,21,50,correct,same,5,f,2.845,19,main
7932,3304,21,150,incorrect,same,9,j,2.845,20,main
7932,1971,21,150,correct,different,10,j,2.845,21,main
7932,2034,21,50,correct,different,9,j,2.845,22,main
7932,1841,21,150,correct,same,1,f,2.845,23,main
7932,2628,21,50,correct,different,7,j,2.845,24,main
7932,2850,21,50,correct,different,11,j,2.845,25,main
7932,2566,21,50,correct,different,10,j,2.845,26,main
7932,2204,21,150,correct,same,3,f,2.845,27,main
7932,1830,21,150,correct,different,1,j,2.845,28,main
7932,2940,21,150,correct,different,6,j,2.845,29,main
7932,2735,21,50,correct,different,6,j,2.845,30,main
7932,3371,21,150,incorrect,same,7,j,2.845,31,main
7932,3208,21,50,correct,different,8,j,2.845,32,main
7932,1965,21,150,correct,same,12,f,2.845,33,main
7932,2228,21,150,correct,different,7,j,2.845,34,main
7932,1545,21,150,correct,same,2,f,2.845,35,main
7932,4446,21,150,incorrect,different,12,f,2.845,36,main
7932,1514,21,50,correct,same,10,f,2.845,37,main
7932,1642,21,50,correct,different,1,j,2.845,38,main
7932,1578,21,50,correct,different,12,j,2.845,39,main
7932,1194,21,50,correct,same,1,f,2.845,40,main
7932,3191,21,150,correct,same,6,f,2.845,41,main
7932,1207,21,50,correct,same,8,f,2.845,42,main
7932,1615,21,150,correct,same,4,f,2.845,43,main
7932,1485,21,50,correct,same,11,f,2.845,44,main
7932,1677,21,50,correct,same,7,f,2.845,45,main
7932,1118,21,50,correct,same,9,f,2.845,46,main
7932,1273,21,50,correct,same,12,f,2.845,47,main
7932,1480,21,150,correct,same,8,f,2.845,48,main
7936,5448,21,50,correct,different,13,j,7.9638666667,1,practice
7936,3255,21,50,correct,different,14,j,7.9638666667,2,practice
7936,4739,21,150,correct,different,14,j,7.9638666667,3,practice
7936,2827,21,50,correct,different,15,j,7.9638666667,4,practice
7936,3889,21,150,correct,same,15,f,7.9638666667,5,practice
7936,3258,21,150,correct,same,14,f,7.9638666667,6,practice
7936,1708,21,50,correct,same,14,f,7.9638666667,7,practice
7936,2518,21,50,correct,same,13,f,7.9638666667,8,practice
7936,7740,21,150,correct,same,13,f,7.9638666667,9,practice
7936,3977,21,150,correct,different,15,j,7.9638666667,10,practice
7936,3097,21,50,correct,same,15,f,7.9638666667,11,practice
7936,3698,21,150,incorrect,different,13,f,7.9638666667,12,practice
7936,2164,21,50,correct,different,12,j,7.9638666667,1,main
7936,3180,21,50,correct,different,4,j,7.9638666667,2,main
7936,2631,21,50,correct,same,7,f,7.9638666667,3,main
7936,6690,21,150,correct,same,11,f,7.9638666667,4,main
7936,3060,21,150,correct,different,8,j,7.9638666667,5,main
7936,5900,21,150,correct,different,7,j,7.9638666667,6,main
7936,5989,21,50,correct,different,3,j,7.9638666667,7,main
7936,9121,21,150,correct,same,10,f,7.9638666667,8,main
7936,4949,21,150,correct,same,1,f,7.9638666667,9,main
7936,6460,21,50,correct,different,8,j,7.9638666667,10,main
7936,10340,21,150,correct,different,4,j,7.9638666667,11,main
7936,4919,21,150,correct,different,2,j,7.9638666667,12,main
7936,2199,21,50,correct,same,9,f,7.9638666667,13,main
7936,10260,21,150,correct,different,11,j,7.9638666667,14,main
7936,2698,21,50,correct,same,3,f,7.9638666667,15,main
7936,3569,21,50,correct,different,7,j,7.9638666667,16,main
7936,3520,21,50,correct,same,8,f,7.9638666667,17,main
7936,2400,21,50,correct,same,5,f,7.9638666667,18,main
7936,2479,21,50,correct,different,10,j,7.9638666667,19,main
7936,2129,21,50,correct,same,10,f,7.9638666667,20,main
7936,7250,21,150,incorrect,same,6,j,7.9638666667,21,main
7936,4789,21,50,correct,same,6,f,7.9638666667,22,main
7936,4229,21,50,correct,different,1,j,7.9638666667,23,main
7936,7560,21,150,correct,same,4,f,7.9638666667,24,main
7936,6960,21,50,correct,different,6,j,7.9638666667,25,main
7936,7210,21,50,incorrect,different,5,f,7.9638666667,26,main
7936,10479,21,50,incorrect,different,11,f,7.9638666667,27,main
7936,4659,21,50,correct,same,1,f,7.9638666667,28,main
7936,3400,21,150,correct,different,5,j,7.9638666667,29,main
7936,1930,21,50,correct,same,12,f,7.9638666667,30,main
7936,5840,21,150,correct,same,3,f,7.9638666667,31,main
7936,2810,21,150,correct,different,1,j,7.9638666667,32,main
7936,3670,21,150,incorrect,different,6,f,7.9638666667,33,main
7936,4660,21,150,incorrect,same,9,j,7.9638666667,34,main
7936,5389,21,50,correct,same,4,f,7.9638666667,35,main
7936,2049,21,50,correct,different,9,j,7.9638666667,36,main
7936,3560,21,150,correct,same,5,f,7.9638666667,37,main
7936,4999,21,150,correct,different,10,j,7.9638666667,38,main
7936,9612,21,150,correct,different,3,j,7.9638666667,39,main
7936,4219,21,150,correct,same,8,f,7.9638666667,40,main
7936,9170,21,150,correct,same,12,f,7.9638666667,41,main
7936,4790,21,150,incorrect,same,7,j,7.9638666667,42,main
7936,8730,21,150,correct,different,12,j,7.9638666667,43,main
7936,9479,21,50,correct,same,2,f,7.9638666667,44,main
7936,4571,21,150,correct,same,2,f,7.9638666667,45,main
7936,1859,21,50,correct,same,11,f,7.9638666667,46,main
7936,2540,21,50,correct,different,2,j,7.9638666667,47,main
7936,2340,21,150,correct,different,9,j,7.9638666667,48,main
7937,4392,21,150,correct,same,14,f,4.3960166667,1,practice
7937,4060,21,150,correct,same,13,f,4.3960166667,2,practice
7937,2208,21,50,correct,different,13,j,4.3960166667,3,practice
7937,2159,21,50,correct,different,14,j,4.3960166667,4,practice
7937,3697,21,150,correct,different,15,j,4.3960166667,5,practice
7937,2746,21,50,correct,same,15,f,4.3960166667,6,practice
7937,3998,21,50,correct,same,13,f,4.3960166667,7,practice
7937,2746,21,150,correct,different,14,j,4.3960166667,8,practice
7937,4171,21,150,correct,same,15,f,4.3960166667,9,practice
7937,1401,21,50,correct,same,14,f,4.3960166667,10,practice
7937,1539,21,50,correct,different,15,j,4.3960166667,11,practice
7937,2079,21,150,correct,different,13,j,4.3960166667,12,practice
7937,2020,21,50,correct,different,12,j,4.3960166667,1,main
7937,3297,21,150,correct,same,4,f,4.3960166667,2,main
7937,2223,21,50,correct,same,10,f,4.3960166667,3,main
7937,3362,21,150,correct,different,2,j,4.3960166667,4,main
7937,2557,21,150,correct,different,11,j,4.3960166667,5,main
7937,3684,21,50,correct,different,7,j,4.3960166667,6,main
7937,1469,21,50,correct,same,9,f,4.3960166667,7,main
7937,2169,21,150,correct,same,2,f,4.3960166667,8,main
7937,4321,21,150,correct,different,7,j,4.3960166667,9,main
7937,3192,21,150,correct,same,7,f,4.3960166667,10,main
7937,2981,21,150,correct,different,3,j,4.3960166667,11,main
7937,2387,21,50,correct,same,4,f,4.3960166667,12,main
7937,2261,21,50,correct,different,9,j,4.3960166667,13,main
7937,2950,21,50,correct,same,7,f,4.3960166667,14,main
7937,2743,21,50,correct,same,6,f,4.3960166667,15,main
7937,2348,21,50,correct,different,3,j,4.3960166667,16,main
7937,2849,21,150,correct,different,4,j,4.3960166667,17,main
7937,2503,21,150,correct,same,12,f,4.3960166667,18,main
7937,2736,21,50,correct,same,3,f,4.3960166667,19,main
7937,5130,21,150,incorrect,same,8,j,4.3960166667,20,main
7937,18681,21,50,correct,same,8,f,4.3960166667,21,main
7937,1541,21,50,correct,different,8,j,4.3960166667,22,main
7937,3930,21,50,correct,different,6,j,4.3960166667,23,main
7937,7960,21,50,correct,different,10,j,4.3960166667,24,main
7937,1853,21,150,correct,same,6,f,4.3960166667,25,main
7937,1934,21,50,correct,same,5,f,4.3960166667,26,main
7937,2036,21,150,correct,same,1,f,4.3960166667,27,main
7937,2022,21,150,correct,different,9,j,4.3960166667,28,main
7937,2811,21,150,correct,different,1,j,4.3960166667,29,main
7937,2673,21,150,correct,different,12,j,4.3960166667,30,main
7937,2107,21,50,correct,same,11,f,4.3960166667,31,main
7937,2727,21,150,correct,same,9,f,4.3960166667,32,main
7937,2876,21,150,correct,different,6,j,4.3960166667,33,main
7937,1889,21,50,correct,same,12,f,4.3960166667,34,main
7937,1886,21,50,correct,same,2,f,4.3960166667,35,main
7937,2880,21,50,correct,different,4,j,4.3960166667,36,main
7937,2827,21,150,correct,different,10,j,4.3960166667,37,main
7937,5995,21,50,correct,different,2,j,4.3960166667,38,main
7937,5288,21,150,correct,same,3,f,4.3960166667,39,main
7937,1862,21,50,correct,same,1,f,4.3960166667,40,main
7937,1921,21,50,correct,different,1,j,4.3960166667,41,main
7937,2949,21,50,correct,different,11,j,4.3960166667,42,main
7937,4163,21,50,correct,different,5,j,4.3960166667,43,main
7937,2900,21,150,correct,same,10,f,4.3960166667,44,main
7937,2357,21,150,correct,same,5,f,4.3960166667,45,main
7937,2548,21,150,correct,same,11,f,4.3960166667,46,main
7937,2097,21,150,correct,different,5,j,4.3960166667,47,main
7937,3561,21,150,correct,different,8,j,4.3960166667,48,main
7930,2714,,50,correct,different,15,j,2.9963666667,1,practice
7930,2299,,50,correct,same,15,f,2.9963666667,2,practice
7930,1969,,150,correct,different,14,j,2.9963666667,3,practice
7930,2103,,50,correct,different,13,j,2.9963666667,4,practice
7930,2245,,50,correct,same,13,f,2.9963666667,5,practice
7930,1438,,50,correct,same,14,f,2.9963666667,6,practice
7930,1873,,150,correct,same,13,f,2.9963666667,7,practice
7930,13716,,150,correct,same,15,f,2.9963666667,8,practice
7930,1402,,50,correct,different,14,j,2.9963666667,9,practice
7930,2172,,150,correct,different,13,j,2.9963666667,10,practice
7930,1341,,150,correct,same,14,f,2.9963666667,11,practice
7930,1816,,150,correct,different,15,j,2.9963666667,12,practice
7930,2161,,50,correct,same,4,f,2.9963666667,1,main
7930,2540,,150,correct,different,9,j,2.9963666667,2,main
7930,2106,,150,correct,same,5,f,2.9963666667,3,main
7930,2474,,150,correct,different,10,j,2.9963666667,4,main
7930,2671,,50,correct,same,7,f,2.9963666667,5,main
7930,1830,,50,correct,same,9,f,2.9963666667,6,main
7930,2403,,150,correct,same,2,f,2.9963666667,7,main
7930,1782,,50,correct,same,2,f,2.9963666667,8,main
7930,1761,,150,correct,different,12,j,2.9963666667,9,main
7930,1516,,50,correct,different,12,j,2.9963666667,10,main
7930,1616,,150,correct,different,6,j,2.9963666667,11,main
7930,1791,,150,correct,same,1,f,2.9963666667,12,main
7930,1750,,50,correct,same,5,f,2.9963666667,13,main
7930,1331,,50,correct,different,1,j,2.9963666667,14,main
7930,4719,,150,correct,different,5,j,2.9963666667,15,main
7930,2083,,50,incorrect,same,6,j,2.9963666667,16,main
7930,3513,,150,correct,same,10,f,2.9963666667,17,main
7930,1386,,50,correct,same,1,f,2.9963666667,18,main
7930,1778,,150,correct,different,4,j,2.9963666667,19,main
7930,2290,,150,correct,same,3,f,2.9963666667,20,main
7930,2898,,150,correct,same,11,f,2.9963666667,21,main
7930,3228,,150,incorrect,different,11,f,2.9963666667,22,main
7930,1415,,50,correct,same,3,f,2.9963666667,23,main
7930,1688,,50,correct,different,9,j,2.9963666667,24,main
7930,1375,,50,correct,different,4,j,2.9963666667,25,main
7930,1664,,50,correct,different,5,j,2.9963666667,26,main
7930,1484,,50,correct,different,6,j,2.9963666667,27,main
7930,2461,,150,correct,different,7,j,2.9963666667,28,main
7930,5895,,150,correct,same,7,f,2.9963666667,29,main
7930,2524,,50,incorrect,different,7,f,2.9963666667,30,main
7930,1625,,50,correct,different,2,j,2.9963666667,31,main
7930,2031,,150,correct,different,2,j,2.9963666667,32,main
7930,2380,,150,correct,different,1,j,2.9963666667,33,main
7930,3830,,150,correct,same,6,f,2.9963666667,34,main
7930,1402,,50,correct,same,8,f,2.9963666667,35,main
7930,2918,,50,correct,same,10,f,2.9963666667,36,main
7930,2341,,150,correct,same,9,f,2.9963666667,37,main
7930,2394,,150,correct,same,4,f,2.9963666667,38,main
7930,1893,,150,correct,same,12,f,2.9963666667,39,main
7930,2602,,50,correct,different,8,j,2.9963666667,40,main
7930,1650,,150,correct,same,8,f,2.9963666667,41,main
7930,1714,,50,correct,same,12,f,2.9963666667,42,main
7930,2177,,150,correct,different,3,j,2.9963666667,43,main
7930,3379,,50,correct,different,10,j,2.9963666667,44,main
7930,2215,,50,correct,different,11,j,2.9963666667,45,main
7930,4212,,50,correct,different,3,j,2.9963666667,46,main
7930,1951,,150,correct,different,8,j,2.9963666667,47,main
7930,1459,,50,correct,same,11,f,2.9963666667,48,main
7935,2600,23,50,correct,different,13,j,4.6565,1,practice
7935,2737,23,50,correct,same,15,f,4.6565,2,practice
7935,2780,23,150,correct,different,13,j,4.6565,3,practice
7935,2077,23,150,incorrect,same,14,j,4.6565,4,practice
7935,2258,23,50,correct,same,14,f,4.6565,5,practice
7935,1829,23,50,correct,same,13,f,4.6565,6,practice
7935,1447,23,50,correct,different,15,j,4.6565,7,practice
7935,3188,23,150,correct,same,13,f,4.6565,8,practice
7935,2473,23,150,correct,different,15,j,4.6565,9,practice
7935,3618,23,150,correct,different,14,j,4.6565,10,practice
7935,2303,23,50,correct,different,14,j,4.6565,11,practice
7935,2952,23,150,correct,same,15,f,4.6565,12,practice
7935,3109,23,150,correct,different,10,j,4.6565,1,main
7935,4252,23,150,correct,different,2,j,4.6565,2,main
7935,3153,23,50,correct,different,2,j,4.6565,3,main
7935,3652,23,50,correct,same,9,f,4.6565,4,main
7935,4101,23,50,correct,same,2,f,4.6565,5,main
7935,4829,23,50,correct,same,10,f,4.6565,6,main
7935,3906,23,50,correct,different,5,j,4.6565,7,main
7935,3318,23,50,correct,same,5,f,4.6565,8,main
7935,4211,23,150,correct,same,5,f,4.6565,9,main
7935,8386,23,150,correct,same,10,f,4.6565,10,main
7935,2056,23,50,correct,same,11,f,4.6565,11,main
7935,2804,23,150,correct,different,5,j,4.6565,12,main
7935,4955,23,150,correct,different,3,j,4.6565,13,main
7935,3713,23,50,correct,different,6,j,4.6565,14,main
7935,6599,23,150,correct,same,11,f,4.6565,15,main
7935,4523,23,150,correct,different,7,j,4.6565,16,main
7935,3902,23,50,correct,same,8,f,4.6565,17,main
7935,3087,23,50,correct,different,12,j,4.6565,18,main
7935,5647,23,50,correct,different,7,j,4.6565,19,main
7935,8349,23,50,correct,different,8,j,4.6565,20,main
7935,4786,23,50,correct,different,10,j,4.6565,21,main
7935,1776,23,150,incorrect,same,7,j,4.6565,22,main
7935,2166,23,50,correct,same,3,f,4.6565,23,main
7935,2850,23,150,incorrect,same,9,j,4.6565,24,main
7935,3741,23,50,incorrect,different,4,f,4.6565,25,main
7935,2541,23,50,correct,same,4,f,4.6565,26,main
7935,3060,23,50,correct,different,11,j,4.6565,27,main
7935,2207,23,50,correct,same,7,f,4.6565,28,main
7935,4302,23,150,correct,different,11,j,4.6565,29,main
7935,2471,23,50,correct,same,1,f,4.6565,30,main
7935,2565,23,150,correct,same,4,f,4.6565,31,main
7935,17836,23,150,incorrect,different,12,f,4.6565,32,main
7935,4491,23,50,correct,different,3,j,4.6565,33,main
7935,2728,23,150,correct,same,12,f,4.6565,34,main
7935,2194,23,50,correct,same,12,f,4.6565,35,main
7935,3650,23,150,correct,different,6,j,4.6565,36,main
7935,6150,23,150,correct,same,2,f,4.6565,37,main
7935,2049,23,50,correct,same,6,f,4.6565,38,main
7935,1792,23,50,correct,different,1,j,4.6565,39,main
7935,3518,23,150,correct,different,1,j,4.6565,40,main
7935,6417,23,150,correct,same,6,f,4.6565,41,main
7935,3980,23,150,correct,same,1,f,4.6565,42,main
7935,3155,23,150,correct,different,8,j,4.6565,43,main
7935,3100,23,50,correct,different,9,j,4.6565,44,main
7935,2914,23,150,correct,same,8,f,4.6565,45,main
7935,2734,23,150,correct,different,4,j,4.6565,46,main
7935,3971,23,150,correct,same,3,f,4.6565,47,main
7935,6102,23,150,correct,different,9,j,4.6565,48,main
7942,2149,27,50,correct,same,13,f,10.238,1,practice
7942,22410,27,150,correct,same,13,f,10.238,2,practice
7942,7386,27,50,correct,same,14,f,10.238,3,practice
7942,9599,27,50,incorrect,different,15,f,10.238,4,practice
7942,9132,27,50,correct,same,15,f,10.238,5,practice
7942,6362,27,150,incorrect,different,14,f,10.238,6,practice
7942,12209,27,150,correct,same,15,f,10.238,7,practice
7942,6143,27,50,incorrect,different,14,f,10.238,8,practice
7942,7176,27,50,incorrect,different,13,f,10.238,9,practice
7942,4490,27,150,incorrect,different,13,f,10.238,10,practice
7942,10720,27,150,correct,same,14,f,10.238,11,practice
7942,6343,27,150,correct,different,15,j,10.238,12,practice
7942,9080,27,150,correct,different,5,j,10.238,1,main
7942,9782,27,150,correct,different,8,j,10.238,2,main
7942,21356,27,50,correct,different,8,j,10.238,3,main
7942,11828,27,50,correct,same,2,f,10.238,4,main
7942,10149,27,150,correct,different,4,j,10.238,5,main
7942,26523,27,50,correct,different,6,j,10.238,6,main
7942,9161,27,150,correct,same,6,f,10.238,7,main
7942,10639,27,50,correct,same,1,f,10.238,8,main
7942,14979,27,150,correct,same,3,f,10.238,9,main
7942,9270,27,50,correct,same,7,f,10.238,10,main
7942,16229,27,150,correct,different,3,j,10.238,11,main
7942,13723,27,150,incorrect,same,9,j,10.238,12,main
7942,26518,27,50,incorrect,different,2,f,10.238,13,main
7942,8217,27,150,incorrect,different,7,f,10.238,14,main
7942,10806,27,50,correct,different,12,j,10.238,15,main
7942,8365,27,150,correct,same,1,f,10.238,16,main
7942,19063,27,50,correct,different,11,j,10.238,17,main
7942,4440,27,50,correct,same,5,f,10.238,18,main
7942,13190,27,50,correct,same,11,f,10.238,19,main
7942,27517,27,150,incorrect,different,12,f,10.238,20,main
7942,27356,27,50,correct,different,3,j,10.238,21,main
7942,9520,27,150,correct,same,5,f,10.238,22,main
7942,30623,27,150,correct,same,10,f,10.238,23,main
7942,2423,27,150,incorrect,different,9,f,10.238,24,main
7942,29073,27,50,incorrect,different,5,f,10.238,25,main
7942,12163,27,50,correct,same,4,f,10.238,26,main
7942,1169,27,50,correct,different,4,j,10.238,27,main
7942,3913,27,150,correct,same,8,f,10.238,28,main
7942,4368,27,50,incorrect,different,7,f,10.238,29,main
7942,1576,27,150,correct,different,6,j,10.238,30,main
7942,2530,27,50,correct,same,9,f,10.238,31,main
7942,875,27,50,incorrect,same,10,j,10.238,32,main
7942,636,27,150,correct,same,11,f,10.238,33,main
7942,2970,27,150,correct,same,12,f,10.238,34,main
7942,1988,27,150,incorrect,different,2,f,10.238,35,main
7942,5435,27,50,correct,same,3,f,10.238,36,main
7942,5278,27,150,correct,same,7,f,10.238,37,main
7942,4321,27,150,incorrect,different,11,f,10.238,38,main
7942,2986,27,150,incorrect,same,2,j,10.238,39,main
7942,2781,27,50,incorrect,different,1,f,10.238,40,main
7942,5503,27,50,correct,same,6,f,10.238,41,main
7942,1585,27,150,correct,different,1,j,10.238,42,main
7942,5231,27,150,correct,same,4,f,10.238,43,main
7942,5822,27,50,correct,different,10,j,10.238,44,main
7942,8649,27,50,correct,same,8,f,10.238,45,main
7942,4297,27,50,correct,same,12,f,10.238,46,main
7942,9606,27,50,incorrect,different,9,f,10.238,47,main
7942,9522,27,150,correct,different,10,j,10.238,48,main
7931,2709,,50,correct,same,14,f,1.62895,1,practice
7931,1094,,50,correct,same,15,f,1.62895,2,practice
7931,1361,,150,correct,same,15,f,1.62895,3,practice
7931,1239,,50,correct,same,13,f,1.62895,4,practice
7931,1282,,150,correct,different,14,j,1.62895,5,practice
7931,1043,,50,correct,different,15,j,1.62895,6,practice
7931,1629,,150,correct,same,14,f,1.62895,7,practice
7931,1239,,50,correct,different,13,j,1.62895,8,practice
7931,1423,,150,correct,different,13,j,1.62895,9,practice
7931,1042,,50,correct,different,14,j,1.62895,10,practice
7931,1747,,150,correct,different,15,j,1.62895,11,practice
7931,1527,,150,correct,same,13,f,1.62895,12,practice
7931,1547,,50,correct,same,8,f,1.62895,1,main
7931,1159,,50,correct,different,6,j,1.62895,2,main
7931,1722,,150,correct,same,7,f,1.62895,3,main
7931,1103,,50,correct,same,1,f,1.62895,4,main
7931,1358,,50,correct,same,7,f,1.62895,5,main
7931,1079,,50,correct,same,12,f,1.62895,6,main
7931,1135,,50,correct,different,3,j,1.62895,7,main
7931,1420,,150,correct,same,12,f,1.62895,8,main
7931,1149,,150,correct,different,2,j,1.62895,9,main
7931,1274,,50,correct,same,3,f,1.62895,10,main
7931,1103,,150,correct,different,5,j,1.62895,11,main
7931,939,,50,correct,same,2,f,1.62895,12,main
7931,1302,,150,incorrect,same,3,j,1.62895,13,main
7931,1265,,50,correct,different,2,j,1.62895,14,main
7931,1175,,50,correct,different,11,j,1.62895,15,main
7931,1049,,50,correct,different,1,j,1.62895,16,main
7931,1134,,50,correct,different,12,j,1.62895,17,main
7931,1244,,50,correct,same,10,f,1.62895,18,main
7931,1908,,50,correct,same,6,f,1.62895,19,main
7931,1093,,150,incorrect,same,10,j,1.62895,20,main
7931,1201,,50,correct,different,8,j,1.62895,21,main
7931,1163,,50,correct,same,11,f,1.62895,22,main
7931,1287,,50,correct,different,4,j,1.62895,23,main
7931,1906,,150,correct,different,10,j,1.62895,24,main
7931,1815,,150,incorrect,same,11,j,1.62895,25,main
7931,1524,,150,correct,different,8,j,1.62895,26,main
7931,1478,,150,correct,different,6,j,1.62895,27,main
7931,1413,,150,correct,different,3,j,1.62895,28,main
7931,1120,,150,incorrect,same,5,j,1.62895,29,main
7931,1813,,150,correct,different,4,j,1.62895,30,main
7931,1456,,150,correct,different,12,j,1.62895,31,main
7931,1255,,150,correct,same,1,f,1.62895,32,main
7931,1264,,50,correct,same,5,f,1.62895,33,main
7931,1279,,150,correct,same,4,f,1.62895,34,main
7931,1117,,50,correct,different,7,j,1.62895,35,main
7931,1335,,50,correct,same,4,f,1.62895,36,main
7931,1401,,150,correct,different,7,j,1.62895,37,main
7931,1160,,50,correct,different,9,j,1.62895,38,main
7931,1194,,50,correct,different,10,j,1.62895,39,main
7931,1215,,50,correct,different,5,j,1.62895,40,main
7931,1626,,150,correct,different,9,j,1.62895,41,main
7931,1244,,150,incorrect,same,9,j,1.62895,42,main
7931,1600,,150,correct,same,6,f,1.62895,43,main
7931,1036,,150,correct,same,8,f,1.62895,44,main
7931,1652,,150,correct,same,2,f,1.62895,45,main
7931,1270,,150,correct,different,11,j,1.62895,46,main
7931,2047,,150,correct,different,1,j,1.62895,47,main
7931,997,,50,correct,same,9,f,1.62895,48,main
7944,2737,,50,correct,same,13,f,13.6907166667,1,practice
7944,2116,,150,incorrect,same,14,j,13.6907166667,2,practice
7944,2156,,50,correct,different,14,j,13.6907166667,3,practice
7944,1745,,50,incorrect,same,15,j,13.6907166667,4,practice
7944,2629,,150,correct,same,13,f,13.6907166667,5,practice
7944,1617,,150,correct,different,13,j,13.6907166667,6,practice
7944,2214,,150,correct,same,15,f,13.6907166667,7,practice
7944,1710,,50,correct,different,15,j,13.6907166667,8,practice
7944,1573,,50,correct,same,14,f,13.6907166667,9,practice
7944,2156,,50,correct,different,13,j,13.6907166667,10,practice
7944,1779,,150,incorrect,different,14,f,13.6907166667,11,practice
7944,2597,,150,correct,different,15,j,13.6907166667,12,practice
7944,2307,,50,incorrect,different,9,f,13.6907166667,1,main
7944,2542,,50,incorrect,different,6,f,13.6907166667,2,main
7944,2171,,150,incorrect,different,4,f,13.6907166667,3,main
7944,2622,,50,correct,different,3,j,13.6907166667,4,main
7944,2947,,150,correct,different,3,j,13.6907166667,5,main
7944,2535,,150,correct,same,5,f,13.6907166667,6,main
7944,2046,,150,correct,different,6,j,13.6907166667,7,main
7944,2367,,50,correct,different,4,j,13.6907166667,8,main
7944,3131,,150,correct,same,8,f,13.6907166667,9,main
7944,2680,,50,correct,different,12,j,13.6907166667,10,main
7944,2342,,50,incorrect,different,5,f,13.6907166667,11,main
7944,2128,,50,correct,different,11,j,13.6907166667,12,main
7944,3628,,50,correct,same,1,f,13.6907166667,13,main
7944,2090,,50,correct,same,10,f,13.6907166667,14,main
7944,2261,,50,correct,different,2,j,13.6907166667,15,main
7944,2168,,50,correct,same,11,f,13.6907166667,16,main
7944,2302,,150,correct,same,9,f,13.6907166667,17,main
7944,2480,,150,incorrect,same,2,j,13.6907166667,18,main
7944,2748,,150,correct,same,3,f,13.6907166667,19,main
7944,2103,,50,correct,same,7,f,13.6907166667,20,main
7944,1741,,150,incorrect,same,10,j,13.6907166667,21,main
7944,2408,,150,incorrect,same,12,j,13.6907166667,22,main
7944,1813,,150,incorrect,different,7,f,13.6907166667,23,main
7944,2941,,150,correct,different,10,j,13.6907166667,24,main
7944,3262,,50,correct,same,3,f,13.6907166667,25,main
7944,1858,,150,incorrect,same,11,j,13.6907166667,26,main
7944,2074,,50,correct,same,12,f,13.6907166667,27,main
7944,2076,,50,correct,same,5,f,13.6907166667,28,main
7944,1815,,50,correct,same,9,f,13.6907166667,29,main
7944,1752,,150,correct,different,5,j,13.6907166667,30,main
7944,2083,,50,correct,different,10,j,13.6907166667,31,main
7944,2959,,50,incorrect,same,4,j,13.6907166667,32,main
7944,2131,,50,incorrect,same,8,j,13.6907166667,33,main
7944,3501,,50,incorrect,different,1,f,13.6907166667,34,main
7944,6083,,150,correct,different,1,j,13.6907166667,35,main
7944,3749,,150,incorrect,same,6,j,13.6907166667,36,main
7944,3861,,50,correct,same,6,f,13.6907166667,37,main
7944,3532,,150,correct,different,11,j,13.6907166667,38,main
7944,4412,,150,correct,different,9,j,13.6907166667,39,main
7944,2738,,50,correct,different,8,j,13.6907166667,40,main
7944,3991,,50,correct,same,2,f,13.6907166667,41,main
7944,3927,,150,correct,same,7,f,13.6907166667,42,main
7944,2176,,150,correct,different,8,j,13.6907166667,43,main
7944,3961,,150,incorrect,same,4,j,13.6907166667,44,main
7944,2670,,150,correct,different,12,j,13.6907166667,45,main
7944,2593,,50,correct,different,7,j,13.6907166667,46,main
7944,4443,,150,correct,different,2,j,13.6907166667,47,main
7944,2110,,150,correct,same,1,f,13.6907166667,48,main
7934,4512,,50,correct,different,14,j,4.23405,1,practice
7934,7201,,150,correct,different,13,j,4.23405,2,practice
7934,4286,,150,correct,same,15,f,4.23405,3,practice
7934,2208,,50,correct,same,14,f,4.23405,4,practice
7934,3359,,50,correct,same,15,f,4.23405,5,practice
7934,3370,,150,incorrect,same,14,j,4.23405,6,practice
7934,2093,,50,correct,same,13,f,4.23405,7,practice
7934,3351,,150,correct,different,15,j,4.23405,8,practice
7934,2152,,50,incorrect,different,13,f,4.23405,9,practice
7934,2586,,150,incorrect,different,14,f,4.23405,10,practice
7934,1901,,50,correct,different,15,j,4.23405,11,practice
7934,2288,,150,correct,same,13,f,4.23405,12,practice
7934,3150,,150,correct,same,12,f,4.23405,1,main
7934,2681,,150,correct,same,4,f,4.23405,2,main
7934,1955,,50,correct,same,12,f,4.23405,3,main
7934,2059,,50,correct,same,9,f,4.23405,4,main
7934,4804,,50,correct,same,4,f,4.23405,5,main
7934,2879,,150,correct,different,7,j,4.23405,6,main
7934,3055,,50,correct,different,4,j,4.23405,7,main
7934,3415,,150,correct,different,5,j,4.23405,8,main
7934,3303,,50,correct,different,8,j,4.23405,9,main
7934,4928,,150,correct,same,2,f,4.23405,10,main
7934,3573,,50,correct,same,7,f,4.23405,11,main
7934,2339,,50,correct,same,1,f,4.23405,12,main
7934,2892,,150,incorrect,same,10,j,4.23405,13,main
7934,4670,,150,correct,same,6,f,4.23405,14,main
7934,4711,,150,correct,same,5,f,4.23405,15,main
7934,2903,,150,correct,different,12,j,4.23405,16,main
7934,2704,,50,correct,different,9,j,4.23405,17,main
7934,2604,,50,correct,same,8,f,4.23405,18,main
7934,3742,,50,correct,different,5,j,4.23405,19,main
7934,4800,,150,correct,different,1,j,4.23405,20,main
7934,3288,,50,correct,different,3,j,4.23405,21,main
7934,5175,,150,correct,same,8,f,4.23405,22,main
7934,4991,,150,correct,different,3,j,4.23405,23,main
7934,2686,,50,correct,same,5,f,4.23405,24,main
7934,5966,,150,incorrect,different,4,f,4.23405,25,main
7934,4463,,50,correct,different,10,j,4.23405,26,main
7934,11874,,150,correct,different,9,j,4.23405,27,main
7934,3642,,150,correct,different,2,j,4.23405,28,main
7934,1705,,50,correct,same,2,f,4.23405,29,main
7934,1859,,50,correct,different,2,j,4.23405,30,main
7934,2803,,150,correct,same,1,f,4.23405,31,main
7934,2645,,50,correct,different,6,j,4.23405,32,main
7934,3606,,150,correct,different,11,j,4.23405,33,main
7934,2564,,50,correct,different,1,j,4.23405,34,main
7934,1724,,50,correct,same,10,f,4.23405,35,main
7934,1899,,50,correct,same,6,f,4.23405,36,main
7934,1768,,50,correct,same,3,f,4.23405,37,main
7934,3506,,150,correct,different,6,j,4.23405,38,main
7934,4593,,50,correct,different,11,j,4.23405,39,main
7934,3880,,150,correct,same,11,f,4.23405,40,main
7934,5296,,150,correct,different,10,j,4.23405,41,main
7934,2906,,150,correct,same,3,f,4.23405,42,main
7934,1683,,50,correct,same,11,f,4.23405,43,main
7934,7457,,150,correct,same,7,f,4.23405,44,main
7934,4375,,150,correct,same,9,f,4.23405,45,main
7934,3226,,50,correct,different,12,j,4.23405,46,main
7934,3538,,50,correct,different,7,j,4.23405,47,main
7934,3899,,150,correct,different,8,j,4.23405,48,main
7939,4666,21,150,correct,same,14,f,5.3058,1,practice
7939,4209,21,150,correct,different,13,j,5.3058,2,practice
7939,5860,21,50,correct,same,15,f,5.3058,3,practice
7939,3372,21,150,correct,different,15,j,5.3058,4,practice
7939,3115,21,50,correct,different,15,j,5.3058,5,practice
7939,2742,21,50,correct,different,14,j,5.3058,6,practice
7939,3757,21,150,correct,same,15,f,5.3058,7,practice
7939,1855,21,50,correct,same,13,f,5.3058,8,practice
7939,1629,21,50,correct,different,13,j,5.3058,9,practice
7939,3657,21,150,incorrect,same,13,j,5.3058,10,practice
7939,3084,21,150,incorrect,different,14,f,5.3058,11,practice
7939,2553,21,50,correct,same,14,f,5.3058,12,practice
7939,3084,21,150,correct,different,11,j,5.3058,1,main
7939,5862,21,50,correct,different,4,j,5.3058,2,main
7939,3990,21,50,correct,different,7,j,5.3058,3,main
7939,3675,21,50,correct,different,2,j,5.3058,4,main
7939,2628,21,50,correct,same,3,f,5.3058,5,main
7939,3207,21,150,correct,same,6,f,5.3058,6,main
7939,5041,21,150,correct,same,2,f,5.3058,7,main
7939,3728,21,150,correct,different,2,j,5.3058,8,main
7939,4277,21,50,correct,same,6,f,5.3058,9,main
7939,4916,21,150,correct,same,7,f,5.3058,10,main
7939,2384,21,50,correct,same,4,f,5.3058,11,main
7939,6863,21,150,correct,different,10,j,5.3058,12,main
7939,2516,21,150,correct,same,1,f,5.3058,13,main
7939,4260,21,150,correct,same,9,f,5.3058,14,main
7939,3258,21,50,correct,different,12,j,5.3058,15,main
7939,9129,21,150,correct,same,5,f,5.3058,16,main
7939,4926,21,150,correct,different,4,j,5.3058,17,main
7939,3143,21,50,correct,different,9,j,5.3058,18,main
7939,3561,21,50,correct,different,1,j,5.3058,19,main
7939,2102,21,50,correct,same,1,f,5.3058,20,main
7939,4704,21,150,correct,different,1,j,5.3058,21,main
7939,6424,21,50,correct,different,5,j,5.3058,22,main
7939,2885,21,50,correct,same,7,f,5.3058,23,main
7939,6778,21,50,correct,different,11,j,5.3058,24,main
7939,2223,21,150,correct,same,12,f,5.3058,25,main
7939,1786,21,50,correct,same,9,f,5.3058,26,main
7939,3240,21,150,correct,same,11,f,5.3058,27,main
7939,4663,21,150,incorrect,different,9,f,5.3058,28,main
7939,3987,21,50,correct,same,5,f,5.3058,29,main
7939,2580,21,150,correct,same,8,f,5.3058,30,main
7939,5470,21,150,incorrect,same,3,j,5.3058,31,main
7939,2314,21,50,correct,same,10,f,5.3058,32,main
7939,1939,21,50,correct,same,11,f,5.3058,33,main
7939,5003,21,50,correct,different,10,j,5.3058,34,main
7939,2503,21,150,correct,same,4,f,5.3058,35,main
7939,3975,21,150,incorrect,different,7,f,5.3058,36,main
7939,4641,21,50,correct,different,3,j,5.3058,37,main
